Folder: Particle_Characterisation/FTIR_data (part 3)

File: Silicone.csv
449.815,0.413152
461.868,0.343093
473.921,0.346177
485.974,0.418456
498.027,0.56437
510.079,0.689907
522.132,0.754271
534.185,0.777198
546.238,0.784586
558.291,0.789042
570.344,0.793458
582.397,0.796092
594.45,0.798985
606.503,0.799643
618.556,0.796391
630.609,0.793524
642.662,0.792346
654.714,0.754221
666.767,0.574628
678.82,0.604494
690.873,0.565671
702.926,0.563776
714.979,0.644893
727.032,0.679194
739.085,0.602413
751.138,0.494997
763.191,0.334502
775.244,0.110678
787.297,0.00140213
799.349,0.0625821
811.402,0.254476
823.455,0.42381
835.508,0.660302
847.561,0.723542
859.614,0.697768
871.667,0.661278
883.72,0.726545
895.773,0.820782
907.826,0.857352
919.879,0.870276
931.932,0.865723
943.984,0.833493
956.037,0.753785
968.09,0.611951
980.143,0.411995
992.196,0.182971
1004.25,0.0345716
1016.3,0.0296551
1028.35,0.121696
1040.41,0.174144
1052.46,0.193306
1064.51,0.196829
1076.57,0.20094
1088.62,0.227102
1100.67,0.312156
1112.73,0.45516
1124.78,0.570753
1136.83,0.627662
1148.88,0.659959
1160.94,0.683527
1172.99,0.703294
1185.04,0.72375
1197.1,0.741362
1209.15,0.757628
1221.2,0.774032
1233.25,0.79611
1245.31,0.803019
1257.36,0.661514
1269.41,0.463338
1281.47,0.877417
1293.52,0.926653
1305.57,0.941817
1317.62,0.948937
1329.68,0.952653
1341.73,0.954316
1353.78,0.955569
1365.84,0.955835
1377.89,0.954628
1389.94,0.952561
1402,0.936911
1414.05,0.922868
1426.1,0.92226
1438.15,0.948344
1450.21,0.946737
1462.26,0.950924
1474.31,0.96006
1486.37,0.958104
1498.42,0.958982
1510.47,0.960505
1522.52,0.95952
1534.58,0.96166
1546.63,0.958868
1558.68,0.96037
1570.74,0.961557
1582.79,0.957599
1594.84,0.959166
1606.89,0.958353
1618.95,0.956007
1631,0.959256
1643.05,0.957965
1655.11,0.958875
1667.16,0.96082
1679.21,0.960884
1691.27,0.961482
1703.32,0.961336
1715.37,0.961245
1727.42,0.962571
1739.48,0.962179
1751.53,0.964068
1763.58,0.963327
1775.64,0.962598
1787.69,0.964383
1799.74,0.96362
1811.79,0.965607
1823.85,0.966275
1835.9,0.965582
1847.95,0.967268
1860.01,0.965149
1872.06,0.96576
1884.11,0.966496
1896.16,0.966773
1908.22,0.966543
1920.27,0.96594
1932.32,0.966306
1944.38,0.963986
1956.43,0.962816
1968.48,0.967386
1980.54,0.970885
1992.59,0.967251
2004.64,0.971497
2016.69,0.972945
2028.75,0.979176
2040.8,0.978541
2052.85,0.975355
2064.91,0.973194
2076.96,0.97222
2089.01,0.974965
2101.06,0.973032
2113.12,0.973446
2125.17,0.975853
2137.22,0.977023
2149.28,0.981348
2161.33,0.987299
2173.38,0.998951
2185.43,0.986988
2197.49,0.985291
2209.54,0.983433
2221.59,0.984061
2233.65,0.980134
2245.7,0.978468
2257.75,0.977869
2269.81,0.978308
2281.86,0.975197
2293.91,0.973401
2305.96,0.972133
2318.02,0.968972
2330.07,0.962926
2342.12,0.955984
2354.18,0.958062
2366.23,0.953162
2378.28,0.948625
2390.33,0.963975
2402.39,0.971552
2414.44,0.974923
2426.49,0.975302
2438.55,0.97499
2450.6,0.973407
2462.65,0.973419
2474.7,0.974588
2486.76,0.973795
2498.81,0.974142
2510.86,0.973794
2522.92,0.975032
2534.97,0.975338
2547.02,0.974673
2559.08,0.974635
2571.13,0.974338
2583.18,0.974163
2595.23,0.9745
2607.29,0.973619
2619.34,0.973239
2631.39,0.972781
2643.45,0.971466
2655.5,0.970781
2667.55,0.970438
2679.6,0.970229
2691.66,0.970855
2703.71,0.971011
2715.76,0.971329
2727.82,0.970768
2739.87,0.971265
2751.92,0.970974
2763.97,0.970911
2776.03,0.970462
2788.08,0.969544
2800.13,0.96797
2812.19,0.966305
2824.24,0.966596
2836.29,0.966691
2848.35,0.966749
2860.4,0.967822
2872.45,0.96824
2884.5,0.967208
2896.56,0.965314
2908.61,0.960623
2920.66,0.947814
2932.72,0.956277
2944.77,0.959422
2956.82,0.948997
2968.87,0.902899
2980.93,0.786189
2992.98,0.913205
3005.03,0.954915
3017.09,0.962861
3029.14,0.965807
3041.19,0.964803
3053.24,0.965063
3065.3,0.966246
3077.35,0.966317
3089.4,0.966385
3101.46,0.966508
3113.51,0.966486
3125.56,0.966696
3137.62,0.966897
3149.67,0.967702
3161.72,0.968141
3173.77,0.968486
3185.83,0.968792
3197.88,0.96924
3209.93,0.969688
3221.99,0.968837
3234.04,0.970209
3246.09,0.969503
3258.14,0.969383
3270.2,0.970182
3282.25,0.970994
3294.3,0.969278
3306.36,0.970256
3318.41,0.969956
3330.46,0.969526
3342.51,0.970154
3354.57,0.970095
3366.62,0.970327
3378.67,0.969947
3390.73,0.970452
3402.78,0.970297
3414.83,0.969845
3426.89,0.969821
3438.94,0.970496
3450.99,0.969788
3463.04,0.970905
3475.1,0.970464
3487.15,0.969293
3499.2,0.971439
3511.26,0.970506
3523.31,0.971257
3535.36,0.97245
3547.41,0.969611
3559.47,0.971131
3571.52,0.970357
3583.57,0.968524
3595.63,0.970406
3607.68,0.969959
3619.73,0.969256
3631.78,0.966348
3643.84,0.969219
3655.89,0.968915
3667.94,0.967681
3680,0.970596
3692.05,0.969475
3704.1,0.967411
3716.16,0.968106
3728.21,0.963154
3740.26,0.9688
3752.31,0.967099
3764.37,0.965205
3776.42,0.969061
3788.47,0.964943
3800.53,0.966479
3812.58,0.969383
3824.63,0.971856
3836.68,0.966874
3848.74,0.968882
3860.79,0.970449
3872.84,0.965496
3884.9,0.968543
3896.95,0.970369
3909,0.968685
3921.05,0.968105
3933.11,0.968744
3945.16,0.968025
3957.21,0.96876
3969.27,0.968613
3981.32,0.967608
3993.37,0.967635
4000.12,0.969035