Folder: Particle_Characterisation/FTIR_data

File: HDPE.csv
449.815,0.953128
461.868,0.959074
473.921,0.949939
485.974,0.938088
498.027,0.927081
510.079,0.94057
522.132,0.950126
534.185,0.944097
546.238,0.937264
558.291,0.941838
570.344,0.946672
582.397,0.947735
594.45,0.94597
606.503,0.935573
618.556,0.929745
630.609,0.938465
642.662,0.928114
654.714,0.933185
666.767,0.933195
678.82,0.930854
690.873,0.923954
702.926,0.906008
714.979,0.796171
727.032,0.695946
739.085,0.896655
751.138,0.93589
763.191,0.939765
775.244,0.941058
787.297,0.943664
799.349,0.940624
811.402,0.942012
823.455,0.94474
835.508,0.944316
847.561,0.943277
859.614,0.943374
871.667,0.943792
883.72,0.945211
895.773,0.942933
907.826,0.941289
919.879,0.942545
931.932,0.944622
943.984,0.943291
956.037,0.945177
968.09,0.942905
980.143,0.942225
992.196,0.942394
1004.25,0.944783
1016.3,0.941982
1028.35,0.938892
1040.41,0.941833
1052.46,0.941406
1064.51,0.939417
1076.57,0.926942
1088.62,0.915137
1100.67,0.927812
1112.73,0.927749
1124.78,0.921906
1136.83,0.931413
1148.88,0.937911
1160.94,0.942065
1172.99,0.93992
1185.04,0.934396
1197.1,0.928124
1209.15,0.926712
1221.2,0.938967
1233.25,0.945648
1245.31,0.945676
1257.36,0.943612
1269.41,0.942281
1281.47,0.941872
1293.52,0.939136
1305.57,0.935489
1317.62,0.936952
1329.68,0.941053
1341.73,0.94122
1353.78,0.935314
1365.84,0.931784
1377.89,0.925137
1389.94,0.938562
1402,0.942676
1414.05,0.942717
1426.1,0.931968
1438.15,0.915121
1450.21,0.88953
1462.26,0.833329
1474.31,0.626337
1486.37,0.889893
1498.42,0.946835
1510.47,0.949732
1522.52,0.951548
1534.58,0.954195
1546.63,0.950033
1558.68,0.949244
1570.74,0.951824
1582.79,0.948608
1594.84,0.953239
1606.89,0.954194
1618.95,0.949907
1631,0.954902
1643.05,0.952093
1655.11,0.951095
1667.16,0.951659
1679.21,0.951495
1691.27,0.955365
1703.32,0.95633
1715.37,0.953397
1727.42,0.955322
1739.48,0.95798
1751.53,0.961246
1763.58,0.955789
1775.64,0.956984
1787.69,0.958966
1799.74,0.95931
1811.79,0.959741
1823.85,0.959493
1835.9,0.956575
1847.95,0.964206
1860.01,0.958581
1872.06,0.958806
1884.11,0.960028
1896.16,0.961791
1908.22,0.955135
1920.27,0.957878
1932.32,0.960003
1944.38,0.957326
1956.43,0.9557
1968.48,0.95291
1980.54,0.954979
1992.59,0.948078
2004.64,0.954481
2016.69,0.950902
2028.75,0.953032
2040.8,0.94702
2052.85,0.947578
2064.91,0.961495
2076.96,0.951854
2089.01,0.959495
2101.06,0.958049
2113.12,0.959983
2125.17,0.961415
2137.22,0.967388
2149.28,0.965918
2161.33,0.972957
2173.38,0.99713
2185.43,0.976978
2197.49,0.960185
2209.54,0.965211
2221.59,0.979768
2233.65,0.967697
2245.7,0.969351
2257.75,0.967978
2269.81,0.964593
2281.86,0.960329
2293.91,0.959744
2305.96,0.957743
2318.02,0.955417
2330.07,0.944725
2342.12,0.937747
2354.18,0.938377
2366.23,0.927505
2378.28,0.921596
2390.33,0.949434
2402.39,0.961013
2414.44,0.96551
2426.49,0.968382
2438.55,0.968051
2450.6,0.966659
2462.65,0.965498
2474.7,0.968621
2486.76,0.965587
2498.81,0.965529
2510.86,0.968879
2522.92,0.969692
2534.97,0.967985
2547.02,0.966308
2559.08,0.964885
2571.13,0.963911
2583.18,0.962087
2595.23,0.962159
2607.29,0.957696
2619.34,0.953296
2631.39,0.950388
2643.45,0.943926
2655.5,0.943973
2667.55,0.944502
2679.6,0.946016
2691.66,0.94749
2703.71,0.948424
2715.76,0.948777
2727.82,0.944467
2739.87,0.94324
2751.92,0.93977
2763.97,0.937998
2776.03,0.933652
2788.08,0.929459
2800.13,0.918164
2812.19,0.897004
2824.24,0.872991
2836.29,0.827506
2848.35,0.70539
2860.4,0.219395
2872.45,0.579861
2884.5,0.811426
2896.56,0.706344
2908.61,0.537649
2920.66,0.345335
2932.72,0.0201018
2944.77,0.57301
2956.82,0.844289
2968.87,0.930551
2980.93,0.950948
2992.98,0.964266
3005.03,0.969491
3017.09,0.97338
3029.14,0.974903
3041.19,0.971615
3053.24,0.970105
3065.3,0.97359
3077.35,0.973125
3089.4,0.973153
3101.46,0.973141
3113.51,0.971471
3125.56,0.975687
3137.62,0.976075
3149.67,0.976362
3161.72,0.976608
3173.77,0.976435
3185.83,0.977412
3197.88,0.975693
3209.93,0.976325
3221.99,0.976246
3234.04,0.979401
3246.09,0.975528
3258.14,0.972839
3270.2,0.974584
3282.25,0.976495
3294.3,0.9741
3306.36,0.973511
3318.41,0.975198
3330.46,0.973804
3342.51,0.975514
3354.57,0.975065
3366.62,0.975165
3378.67,0.973336
3390.73,0.972043
3402.78,0.973387
3414.83,0.973794
3426.89,0.972854
3438.94,0.976918
3450.99,0.97121
3463.04,0.977421
3475.1,0.976014
3487.15,0.975429
3499.2,0.980357
3511.26,0.973699
3523.31,0.977043
3535.36,0.98069
3547.41,0.976555
3559.47,0.975988
3571.52,0.97642
3583.57,0.97456
3595.63,0.978815
3607.68,0.980117
3619.73,0.97295
3631.78,0.970217
3643.84,0.976252
3655.89,0.981031
3667.94,0.979017
3680,0.980453
3692.05,0.983402
3704.1,0.972703
3716.16,0.982826
3728.21,0.97394
3740.26,0.983121
3752.31,0.9764
3764.37,0.974534
3776.42,0.978692
3788.47,0.974819
3800.53,0.975634
3812.58,0.982469
3824.63,0.98275
3836.68,0.976794
3848.74,0.979865
3860.79,0.977785
3872.84,0.977323
3884.9,0.97824
3896.95,0.980346
3909,0.97432
3921.05,0.978931
3933.11,0.977048
3945.16,0.979953
3957.21,0.973782
3969.27,0.978575
3981.32,0.9793
3993.37,0.978943
4000.12,0.981517

File: LDPE.csv
449.815,0.792077
461.868,0.813231
473.921,0.805869
485.974,0.795315
498.027,0.790663
510.079,0.796568
522.132,0.788803
534.185,0.796681
546.238,0.784441
558.291,0.796145
570.344,0.802454
582.397,0.804316
594.45,0.805158
606.503,0.803295
618.556,0.800034
630.609,0.797297
642.662,0.789443
654.714,0.780263
666.767,0.778177
678.82,0.775359
690.873,0.776105
702.926,0.768797
714.979,0.658976
727.032,0.626635
739.085,0.81671
751.138,0.856407
763.191,0.877619
775.244,0.889983
787.297,0.899484
799.349,0.90156
811.402,0.905339
823.455,0.910494
835.508,0.914837
847.561,0.913553
859.614,0.913152
871.667,0.874014
883.72,0.734773
895.773,0.921786
907.826,0.92647
919.879,0.928198
931.932,0.928838
943.984,0.92701
956.037,0.928219
968.09,0.925526
980.143,0.920929
992.196,0.923796
1004.25,0.91871
1016.3,0.91319
1028.35,0.906288
1040.41,0.912399
1052.46,0.916901
1064.51,0.917725
1076.57,0.916332
1088.62,0.912282
1100.67,0.907382
1112.73,0.90882
1124.78,0.912343
1136.83,0.917222
1148.88,0.919019
1160.94,0.918445
1172.99,0.914252
1185.04,0.917599
1197.1,0.920528
1209.15,0.920957
1221.2,0.919154
1233.25,0.916517
1245.31,0.901745
1257.36,0.900593
1269.41,0.891321
1281.47,0.895874
1293.52,0.890241
1305.57,0.88427
1317.62,0.879924
1329.68,0.8763
1341.73,0.861273
1353.78,0.839353
1365.84,0.809889
1377.89,0.767059
1389.94,0.738735
1402,0.701976
1414.05,0.659159
1426.1,0.593193
1438.15,0.570316
1450.21,0.57553
1462.26,0.563017
1474.31,0.471909
1486.37,0.745301
1498.42,0.820213
1510.47,0.850693
1522.52,0.872601
1534.58,0.891078
1546.63,0.902822
1558.68,0.913552
1570.74,0.92046
1582.79,0.922271
1594.84,0.927835
1606.89,0.932181
1618.95,0.930464
1631,0.936039
1643.05,0.929862
1655.11,0.92899
1667.16,0.933128
1679.21,0.93564
1691.27,0.94011
1703.32,0.942445
1715.37,0.938594
1727.42,0.935037
1739.48,0.932656
1751.53,0.927374
1763.58,0.940702
1775.64,0.94336
1787.69,0.947056
1799.74,0.942673
1811.79,0.940628
1823.85,0.946845
1835.9,0.944719
1847.95,0.949281
1860.01,0.94351
1872.06,0.944513
1884.11,0.945557
1896.16,0.945748
1908.22,0.940398
1920.27,0.9417
1932.32,0.94318
1944.38,0.937182
1956.43,0.934586
1968.48,0.937446
1980.54,0.929902
1992.59,0.923456
2004.64,0.932926
2016.69,0.931739
2028.75,0.938039
2040.8,0.940254
2052.85,0.939408
2064.91,0.95124
2076.96,0.946228
2089.01,0.950274
2101.06,0.950729
2113.12,0.953664
2125.17,0.956145
2137.22,0.962018
2149.28,0.969878
2161.33,0.981469
2173.38,0.989411
2185.43,0.9721
2197.49,0.968254
2209.54,0.967487
2221.59,0.973675
2233.65,0.965051
2245.7,0.962078
2257.75,0.962865
2269.81,0.96008
2281.86,0.957149
2293.91,0.952349
2305.96,0.949847
2318.02,0.943581
2330.07,0.928971
2342.12,0.911685
2354.18,0.91326
2366.23,0.905046
2378.28,0.888904
2390.33,0.929162
2402.39,0.952069
2414.44,0.960168
2426.49,0.962805
2438.55,0.961066
2450.6,0.959437
2462.65,0.957311
2474.7,0.959921
2486.76,0.959166
2498.81,0.959636
2510.86,0.958444
2522.92,0.957548
2534.97,0.954551
2547.02,0.956004
2559.08,0.955891
2571.13,0.954892
2583.18,0.953569
2595.23,0.952744
2607.29,0.949714
2619.34,0.94525
2631.39,0.942924
2643.45,0.937798
2655.5,0.936434
2667.55,0.936892
2679.6,0.936901
2691.66,0.939043
2703.71,0.940418
2715.76,0.939939
2727.82,0.93725
2739.87,0.935375
2751.92,0.933738
2763.97,0.932164
2776.03,0.930611
2788.08,0.925395
2800.13,0.916324
2812.19,0.899658
2824.24,0.877376
2836.29,0.839428
2848.35,0.72697
2860.4,0.258318
2872.45,0.497788
2884.5,0.756143
2896.56,0.688032
2908.61,0.532053
2920.66,0.34086
2932.72,0.00366449
2944.77,0.486439
2956.82,0.773737
2968.87,0.854289
2980.93,0.886034
2992.98,0.927181
3005.03,0.942481
3017.09,0.94761
3029.14,0.947432
3041.19,0.946461
3053.24,0.946532
3065.3,0.948673
3077.35,0.947365
3089.4,0.948686
3101.46,0.950047
3113.51,0.949788
3125.56,0.950743
3137.62,0.950304
3149.67,0.952081
3161.72,0.951837
3173.77,0.951925
3185.83,0.95277
3197.88,0.951652
3209.93,0.952486
3221.99,0.950648
3234.04,0.951702
3246.09,0.951063
3258.14,0.948494
3270.2,0.950778
3282.25,0.949796
3294.3,0.949335
3306.36,0.950405
3318.41,0.949334
3330.46,0.948242
3342.51,0.949327
3354.57,0.949923
3366.62,0.950167
3378.67,0.950107
3390.73,0.950364
3402.78,0.949928
3414.83,0.951015
3426.89,0.948872
3438.94,0.951604
3450.99,0.9504
3463.04,0.952966
3475.1,0.954614
3487.15,0.950846
3499.2,0.956247
3511.26,0.953387
3523.31,0.955676
3535.36,0.955699
3547.41,0.954284
3559.47,0.95743
3571.52,0.953912
3583.57,0.956207
3595.63,0.955568
3607.68,0.958038
3619.73,0.954451
3631.78,0.947497
3643.84,0.954631
3655.89,0.95353
3667.94,0.956952
3680,0.961683
3692.05,0.961801
3704.1,0.955646
3716.16,0.958468
3728.21,0.952669
3740.26,0.960989
3752.31,0.958046
3764.37,0.954811
3776.42,0.956865
3788.47,0.954906
3800.53,0.956482
3812.58,0.962207
3824.63,0.959354
3836.68,0.958292
3848.74,0.95893
3860.79,0.957323
3872.84,0.957408
3884.9,0.957572
3896.95,0.959748
3909,0.954482
3921.05,0.957587
3933.11,0.95427
3945.16,0.956747
3957.21,0.953492
3969.27,0.956127
3981.32,0.954207
3993.37,0.955782
4000.12,0.958069

File: Nylon 6,6.csv
449.815,0.681505
461.868,0.664729
473.921,0.632922
485.974,0.608272
498.027,0.564875
510.079,0.551415
522.132,0.541459
534.185,0.497952
546.238,0.523191
558.291,0.497494
570.344,0.411389
582.397,0.331613
594.45,0.472159
606.503,0.526424
618.556,0.543677
630.609,0.547916
642.662,0.532722
654.714,0.495643
666.767,0.433617
678.82,0.373203
690.873,0.361484
702.926,0.447983
714.979,0.50422
727.032,0.511847
739.085,0.580615
751.138,0.672874
763.191,0.703797
775.244,0.736243
787.297,0.764269
799.349,0.780627
811.402,0.808044
823.455,0.826333
835.508,0.836587
847.561,0.841915
859.614,0.848434
871.667,0.853827
883.72,0.851241
895.773,0.847916
907.826,0.81178
919.879,0.813461
931.932,0.770875
943.984,0.751425
956.037,0.834792
968.09,0.851326
980.143,0.853321
992.196,0.842847
1004.25,0.83441
1016.3,0.822724
1028.35,0.820715
1040.41,0.813184
1052.46,0.807464
1064.51,0.810396
1076.57,0.823084
1088.62,0.824495
1100.67,0.806352
1112.73,0.802956
1124.78,0.795644
1136.83,0.75807
1148.88,0.686174
1160.94,0.734214
1172.99,0.734348
1185.04,0.614663
1197.1,0.620099
1209.15,0.580225
1221.2,0.682228
1233.25,0.655653
1245.31,0.613242
1257.36,0.582692
1269.41,0.524126
1281.47,0.456616
1293.52,0.605705
1305.57,0.653827
1317.62,0.675469
1329.68,0.694598
1341.73,0.678452
1353.78,0.65107
1365.84,0.596678
1377.89,0.551101
1389.94,0.631528
1402,0.688329
1414.05,0.668755
1426.1,0.49629
1438.15,0.559922
1450.21,0.549174
1462.26,0.525992
1474.31,0.464635
1486.37,0.543853
1498.42,0.642753
1510.47,0.533319
1522.52,0.344336
1534.58,0.101536
1546.63,0.0630918
1558.68,0.239912
1570.74,0.415101
1582.79,0.572726
1594.84,0.670578
1606.89,0.633848
1618.95,0.42448
1631,0.130868
1643.05,0.00093207
1655.11,0.218399
1667.16,0.504185
1679.21,0.723911
1691.27,0.85392
1703.32,0.907974
1715.37,0.915173
1727.42,0.920318
1739.48,0.92533
1751.53,0.929311
1763.58,0.929143
1775.64,0.93251
1787.69,0.937324
1799.74,0.936761
1811.79,0.936955
1823.85,0.938377
1835.9,0.935991
1847.95,0.938777
1860.01,0.934142
1872.06,0.935633
1884.11,0.938334
1896.16,0.938431
1908.22,0.936831
1920.27,0.936547
1932.32,0.934668
1944.38,0.930821
1956.43,0.931385
1968.48,0.935033
1980.54,0.93107
1992.59,0.919434
2004.64,0.926235
2016.69,0.930656
2028.75,0.943868
2040.8,0.92898
2052.85,0.929565
2064.91,0.942432
2076.96,0.940272
2089.01,0.945231
2101.06,0.935813
2113.12,0.9355
2125.17,0.935274
2137.22,0.947173
2149.28,0.95078
2161.33,0.968355
2173.38,0.996499
2185.43,0.974008
2197.49,0.971104
2209.54,0.964497
2221.59,0.96656
2233.65,0.959074
2245.7,0.956921
2257.75,0.955698
2269.81,0.956437
2281.86,0.948702
2293.91,0.943038
2305.96,0.937682
2318.02,0.928382
2330.07,0.91515
2342.12,0.903589
2354.18,0.907431
2366.23,0.900029
2378.28,0.901537
2390.33,0.923265
2402.39,0.938307
2414.44,0.94841
2426.49,0.948332
2438.55,0.945905
2450.6,0.94126
2462.65,0.941034
2474.7,0.947609
2486.76,0.944405
2498.81,0.946051
2510.86,0.947372
2522.92,0.947333
2534.97,0.946078
2547.02,0.943306
2559.08,0.940643
2571.13,0.940905
2583.18,0.94035
2595.23,0.939616
2607.29,0.935814
2619.34,0.935506
2631.39,0.935205
2643.45,0.932137
2655.5,0.926985
2667.55,0.925546
2679.6,0.925139
2691.66,0.924208
2703.71,0.922209
2715.76,0.921212
2727.82,0.919597
2739.87,0.918922
2751.92,0.915039
2763.97,0.91378
2776.03,0.910955
2788.08,0.907403
2800.13,0.904395
2812.19,0.896679
2824.24,0.887207
2836.29,0.874538
2848.35,0.856017
2860.4,0.787905
2872.45,0.649376
2884.5,0.686209
2896.56,0.753209
2908.61,0.768419
2920.66,0.697809
2932.72,0.598581
2944.77,0.526551
2956.82,0.581081
2968.87,0.721383
2980.93,0.819281
2992.98,0.878239
3005.03,0.905373
3017.09,0.90959
3029.14,0.907083
3041.19,0.897859
3053.24,0.886697
3065.3,0.867866
3077.35,0.84437
3089.4,0.831923
3101.46,0.829453
3113.51,0.843138
3125.56,0.860683
3137.62,0.87389
3149.67,0.880073
3161.72,0.87819
3173.77,0.870293
3185.83,0.859837
3197.88,0.842459
3209.93,0.82698
3221.99,0.812985
3234.04,0.800154
3246.09,0.777159
3258.14,0.743171
3270.2,0.695253
3282.25,0.641811
3294.3,0.586914
3306.36,0.532763
3318.41,0.509068
3330.46,0.578615
3342.51,0.684758
3354.57,0.759166
3366.62,0.803514
3378.67,0.832106
3390.73,0.851522
3402.78,0.863782
3414.83,0.871569
3426.89,0.874733
3438.94,0.878474
3450.99,0.880768
3463.04,0.882329
3475.1,0.885409
3487.15,0.885966
3499.2,0.89015
3511.26,0.889562
3523.31,0.895807
3535.36,0.903328
3547.41,0.905861
3559.47,0.912872
3571.52,0.920196
3583.57,0.920948
3595.63,0.934082
3607.68,0.933803
3619.73,0.932362
3631.78,0.931083
3643.84,0.937049
3655.89,0.944669
3667.94,0.944134
3680,0.951675
3692.05,0.951179
3704.1,0.943257
3716.16,0.949376
3728.21,0.939306
3740.26,0.951304
3752.31,0.943778
3764.37,0.940552
3776.42,0.948849
3788.47,0.941196
3800.53,0.944871
3812.58,0.95268
3824.63,0.95323
3836.68,0.938807
3848.74,0.943834
3860.79,0.950737
3872.84,0.93808
3884.9,0.944486
3896.95,0.950228
3909,0.939642
3921.05,0.942225
3933.11,0.9428
3945.16,0.941916
3957.21,0.938585
3969.27,0.940472
3981.32,0.941047
3993.37,0.939272
4000.12,0.944742

File: Nylon 6.csv
449.815,0.641901
461.868,0.680278
473.921,0.649653
485.974,0.622727
498.027,0.594526
510.079,0.571116
522.132,0.515799
534.185,0.579891
546.238,0.589717
558.291,0.544325
570.344,0.459771
582.397,0.431302
594.45,0.523464
606.503,0.556985
618.556,0.572912
630.609,0.576811
642.662,0.591332
654.714,0.583001
666.767,0.549135
678.82,0.458966
690.873,0.429735
702.926,0.535417
714.979,0.545502
727.032,0.560917
739.085,0.631992
751.138,0.73652
763.191,0.775433
775.244,0.78448
787.297,0.795451
799.349,0.818098
811.402,0.842921
823.455,0.886471
835.508,0.898059
847.561,0.901552
859.614,0.922864
871.667,0.929014
883.72,0.897033
895.773,0.888028
907.826,0.888647
919.879,0.879097
931.932,0.846207
943.984,0.871902
956.037,0.856619
968.09,0.863537
980.143,0.854284
992.196,0.860734
1004.25,0.881306
1016.3,0.88831
1028.35,0.903427
1040.41,0.879772
1052.46,0.876544
1064.51,0.857351
1076.57,0.842141
1088.62,0.883864
1100.67,0.90696
1112.73,0.838602
1124.78,0.796707
1136.83,0.86704
1148.88,0.935505
1160.94,0.843639
1172.99,0.678588
1185.04,0.736597
1197.1,0.718453
1209.15,0.601103
1221.2,0.705242
1233.25,0.729131
1245.31,0.615988
1257.36,0.60994
1269.41,0.531819
1281.47,0.669853
1293.52,0.689556
1305.57,0.708748
1317.62,0.754395
1329.68,0.780046
1341.73,0.753294
1353.78,0.754875
1365.84,0.726355
1377.89,0.659229
1389.94,0.696603
1402,0.755614
1414.05,0.718909
1426.1,0.571959
1438.15,0.588101
1450.21,0.578659
1462.26,0.573123
1474.31,0.53414
1486.37,0.590948
1498.42,0.69973
1510.47,0.590861
1522.52,0.409861
1534.58,0.185123
1546.63,0.0645624
1558.68,0.20707
1570.74,0.390826
1582.79,0.561736
1594.84,0.685495
1606.89,0.664217
1618.95,0.462945
1631,0.147238
1643.05,0.000568748
1655.11,0.222065
1667.16,0.502319
1679.21,0.721564
1691.27,0.871644
1703.32,0.932062
1715.37,0.948458
1727.42,0.952141
1739.48,0.957063
1751.53,0.961427
1763.58,0.967536
1775.64,0.971189
1787.69,0.97461
1799.74,0.97606
1811.79,0.979689
1823.85,0.98112
1835.9,0.982375
1847.95,0.982348
1860.01,0.984143
1872.06,0.982858
1884.11,0.984552
1896.16,0.983966
1908.22,0.985539
1920.27,0.987041
1932.32,0.989078
1944.38,0.98954
1956.43,0.990891
1968.48,0.994485
1980.54,0.998706
1992.59,0.985627
2004.64,0.979801
2016.69,0.979945
2028.75,0.970426
2040.8,0.965613
2052.85,0.958896
2064.91,0.963555
2076.96,0.963635
2089.01,0.968434
2101.06,0.969837
2113.12,0.97383
2125.17,0.974534
2137.22,0.975058
2149.28,0.977868
2161.33,0.975237
2173.38,0.976355
2185.43,0.970238
2197.49,0.963983
2209.54,0.962474
2221.59,0.957892
2233.65,0.959876
2245.7,0.955043
2257.75,0.958442
2269.81,0.958743
2281.86,0.96148
2293.91,0.963418
2305.96,0.9646
2318.02,0.965535
2330.07,0.956916
2342.12,0.952455
2354.18,0.947893
2366.23,0.948842
2378.28,0.940572
2390.33,0.958031
2402.39,0.969854
2414.44,0.97014
2426.49,0.970899
2438.55,0.972451
2450.6,0.973479
2462.65,0.974125
2474.7,0.972613
2486.76,0.972437
2498.81,0.972115
2510.86,0.972094
2522.92,0.9723
2534.97,0.971914
2547.02,0.968883
2559.08,0.968771
2571.13,0.965758
2583.18,0.964206
2595.23,0.963511
2607.29,0.960336
2619.34,0.957813
2631.39,0.958197
2643.45,0.956155
2655.5,0.957925
2667.55,0.958775
2679.6,0.958749
2691.66,0.959898
2703.71,0.959487
2715.76,0.959719
2727.82,0.95815
2739.87,0.955565
2751.92,0.953114
2763.97,0.949912
2776.03,0.948481
2788.08,0.944942
2800.13,0.941225
2812.19,0.937069
2824.24,0.927962
2836.29,0.913293
2848.35,0.897376
2860.4,0.824849
2872.45,0.692985
2884.5,0.703232
2896.56,0.792175
2908.61,0.79456
2920.66,0.743957
2932.72,0.669595
2944.77,0.583308
2956.82,0.600199
2968.87,0.729924
2980.93,0.83738
2992.98,0.910827
3005.03,0.94129
3017.09,0.949488
3029.14,0.946848
3041.19,0.944248
3053.24,0.931585
3065.3,0.905643
3077.35,0.87843
3089.4,0.860234
3101.46,0.856158
3113.51,0.867301
3125.56,0.887386
3137.62,0.905132
3149.67,0.909948
3161.72,0.910438
3173.77,0.902781
3185.83,0.889034
3197.88,0.869268
3209.93,0.849999
3221.99,0.835931
3234.04,0.821348
3246.09,0.796984
3258.14,0.757942
3270.2,0.704312
3282.25,0.643161
3294.3,0.58275
3306.36,0.521661
3318.41,0.520901
3330.46,0.618823
3342.51,0.708071
3354.57,0.779141
3366.62,0.827471
3378.67,0.856506
3390.73,0.879042
3402.78,0.890507
3414.83,0.901323
3426.89,0.904246
3438.94,0.906188
3450.99,0.911094
3463.04,0.912929
3475.1,0.914452
3487.15,0.918629
3499.2,0.918327
3511.26,0.921726
3523.31,0.926081
3535.36,0.93269
3547.41,0.937208
3559.47,0.941768
3571.52,0.950025
3583.57,0.954916
3595.63,0.960291
3607.68,0.962602
3619.73,0.967264
3631.78,0.973042
3643.84,0.972476
3655.89,0.977614
3667.94,0.973608
3680,0.980808
3692.05,0.978648
3704.1,0.982135
3716.16,0.983015
3728.21,0.980911
3740.26,0.982505
3752.31,0.982655
3764.37,0.98
3776.42,0.981894
3788.47,0.981109
3800.53,0.981216
3812.58,0.984467
3824.63,0.985603
3836.68,0.981651
3848.74,0.985605
3860.79,0.98645
3872.84,0.983089
3884.9,0.986136
3896.95,0.985762
3909,0.982468
3921.05,0.983294
3933.11,0.986204
3945.16,0.984114
3957.21,0.984171
3969.27,0.985823
3981.32,0.985863
3993.37,0.986922
4000.12,0.986765

File: PET-rec.csv
449.815,0.72169
461.868,0.716723
473.921,0.697148
485.974,0.686201
498.027,0.639292
510.079,0.663431
522.132,0.705632
534.185,0.735566
546.238,0.749984
558.291,0.768715
570.344,0.767975
582.397,0.771429
594.45,0.765315
606.503,0.758898
618.556,0.750962
630.609,0.737987
642.662,0.732555
654.714,0.711115
666.767,0.694858
678.82,0.652933
690.873,0.623012
702.926,0.529248
714.979,0.370389
727.032,0.0028745
739.085,0.502448
751.138,0.842529
763.191,0.831855
775.244,0.799568
787.297,0.762561
799.349,0.711259
811.402,0.744798
823.455,0.735844
835.508,0.709853
847.561,0.664351
859.614,0.67002
871.667,0.606704
883.72,0.615714
895.773,0.718371
907.826,0.728506
919.879,0.766717
931.932,0.757436
943.984,0.7409
956.037,0.716452
968.09,0.665386
980.143,0.638046
992.196,0.667156
1004.25,0.632665
1016.3,0.475781
1028.35,0.519394
1040.41,0.5904
1052.46,0.566895
1064.51,0.569798
1076.57,0.42523
1088.62,0.220676
1100.67,0.153063
1112.73,0.311688
1124.78,0.357976
1136.83,0.536053
1148.88,0.681324
1160.94,0.779385
1172.99,0.778385
1185.04,0.735628
1197.1,0.728971
1209.15,0.632214
1221.2,0.489955
1233.25,0.29049
1245.31,0.127267
1257.36,0.204489
1269.41,0.273499
1281.47,0.450188
1293.52,0.538798
1305.57,0.689708
1317.62,0.788396
1329.68,0.841793
1341.73,0.754004
1353.78,0.796864
1365.84,0.862293
1377.89,0.812579
1389.94,0.840652
1402,0.825459
1414.05,0.676615
1426.1,0.845301
1438.15,0.869327
1450.21,0.830968
1462.26,0.810617
1474.31,0.848988
1486.37,0.860284
1498.42,0.887715
1510.47,0.839082
1522.52,0.882358
1534.58,0.886124
1546.63,0.881894
1558.68,0.884072
1570.74,0.881266
1582.79,0.845592
1594.84,0.869515
1606.89,0.874491
1618.95,0.848892
1631,0.857178
1643.05,0.843981
1655.11,0.832863
1667.16,0.813714
1679.21,0.759709
1691.27,0.688785
1703.32,0.582202
1715.37,0.296359
1727.42,0.207205
1739.48,0.447957
1751.53,0.735086
1763.58,0.873364
1775.64,0.891516
1787.69,0.902702
1799.74,0.902687
1811.79,0.905398
1823.85,0.907477
1835.9,0.901907
1847.95,0.908823
1860.01,0.906132
1872.06,0.909389
1884.11,0.910127
1896.16,0.909078
1908.22,0.905986
1920.27,0.906115
1932.32,0.902416
1944.38,0.89662
1956.43,0.892284
1968.48,0.896624
1980.54,0.901058
1992.59,0.895893
2004.64,0.905029
2016.69,0.905729
2028.75,0.909093
2040.8,0.914931
2052.85,0.911839
2064.91,0.913822
2076.96,0.910665
2089.01,0.914002
2101.06,0.909685
2113.12,0.911724
2125.17,0.916485
2137.22,0.92465
2149.28,0.938863
2161.33,0.961545
2173.38,0.996579
2185.43,0.959473
2197.49,0.948347
2209.54,0.940312
2221.59,0.938649
2233.65,0.928397
2245.7,0.929079
2257.75,0.927415
2269.81,0.917353
2281.86,0.910857
2293.91,0.907807
2305.96,0.902884
2318.02,0.888841
2330.07,0.858993
2342.12,0.822463
2354.18,0.816782
2366.23,0.807211
2378.28,0.777619
2390.33,0.859012
2402.39,0.904362
2414.44,0.913939
2426.49,0.916591
2438.55,0.917698
2450.6,0.916396
2462.65,0.918149
2474.7,0.92
2486.76,0.917569
2498.81,0.919476
2510.86,0.921251
2522.92,0.92114
2534.97,0.919596
2547.02,0.916544
2559.08,0.915685
2571.13,0.914962
2583.18,0.914376
2595.23,0.913415
2607.29,0.911301
2619.34,0.908892
2631.39,0.907566
2643.45,0.90329
2655.5,0.903206
2667.55,0.904349
2679.6,0.906136
2691.66,0.906732
2703.71,0.90795
2715.76,0.908077
2727.82,0.907189
2739.87,0.907332
2751.92,0.906104
2763.97,0.906611
2776.03,0.905037
2788.08,0.905539
2800.13,0.904015
2812.19,0.903265
2824.24,0.902752
2836.29,0.903784
2848.35,0.902353
2860.4,0.903003
2872.45,0.902186
2884.5,0.901142
2896.56,0.899006
2908.61,0.899455
2920.66,0.89902
2932.72,0.901772
2944.77,0.90427
2956.82,0.896726
2968.87,0.883564
2980.93,0.87703
2992.98,0.88364
3005.03,0.893951
3017.09,0.896635
3029.14,0.899188
3041.19,0.900421
3053.24,0.900826
3065.3,0.899213
3077.35,0.896604
3089.4,0.896816
3101.46,0.896859
3113.51,0.899581
3125.56,0.899277
3137.62,0.902118
3149.67,0.90356
3161.72,0.904335
3173.77,0.904947
3185.83,0.907894
3197.88,0.905133
3209.93,0.907617
3221.99,0.906901
3234.04,0.90881
3246.09,0.908519
3258.14,0.907008
3270.2,0.907789
3282.25,0.909919
3294.3,0.906116
3306.36,0.90744
3318.41,0.907866
3330.46,0.908712
3342.51,0.907845
3354.57,0.909158
3366.62,0.909668
3378.67,0.910835
3390.73,0.910908
3402.78,0.911057
3414.83,0.907903
3426.89,0.90801
3438.94,0.908298
3450.99,0.90605
3463.04,0.905613
3475.1,0.911443
3487.15,0.909717
3499.2,0.91156
3511.26,0.908828
3523.31,0.91259
3535.36,0.910649
3547.41,0.906297
3559.47,0.909593
3571.52,0.908689
3583.57,0.908276
3595.63,0.910972
3607.68,0.90483
3619.73,0.902649
3631.78,0.900468
3643.84,0.904041
3655.89,0.901894
3667.94,0.899605
3680,0.913718
3692.05,0.916253
3704.1,0.906983
3716.16,0.911252
3728.21,0.898336
3740.26,0.908494
3752.31,0.902877
3764.37,0.898131
3776.42,0.909136
3788.47,0.902437
3800.53,0.903674
3812.58,0.913256
3824.63,0.917154
3836.68,0.901719
3848.74,0.909227
3860.79,0.915941
3872.84,0.899
3884.9,0.90612
3896.95,0.911444
3909,0.90752
3921.05,0.904633
3933.11,0.905493
3945.16,0.904467
3957.21,0.903873
3969.27,0.903696
3981.32,0.904002
3993.37,0.904876
4000.12,0.908265