Folder: Particle_Characterisation/FTIR_data (part 2)

File: PET.csv
449.815,0.775963
461.868,0.762805
473.921,0.770543
485.974,0.750531
498.027,0.698877
510.079,0.708503
522.132,0.770517
534.185,0.796371
546.238,0.823868
558.291,0.840167
570.344,0.845674
582.397,0.850367
594.45,0.849333
606.503,0.837795
618.556,0.832364
630.609,0.810686
642.662,0.807248
654.714,0.789216
666.767,0.76513
678.82,0.711498
690.873,0.672634
702.926,0.549311
714.979,0.359635
727.032,0.00227186
739.085,0.477116
751.138,0.868853
763.191,0.874064
775.244,0.839853
787.297,0.793965
799.349,0.729645
811.402,0.77619
823.455,0.764786
835.508,0.731164
847.561,0.674724
859.614,0.679017
871.667,0.61006
883.72,0.598999
895.773,0.736485
907.826,0.748281
919.879,0.795712
931.932,0.787429
943.984,0.765672
956.037,0.732407
968.09,0.673588
980.143,0.6476
992.196,0.684209
1004.25,0.64638
1016.3,0.469036
1028.35,0.480251
1040.41,0.588807
1052.46,0.551491
1064.51,0.545817
1076.57,0.37981
1088.62,0.147817
1100.67,0.0740899
1112.73,0.227467
1124.78,0.284949
1136.83,0.492059
1148.88,0.665037
1160.94,0.78718
1172.99,0.801452
1185.04,0.751752
1197.1,0.757556
1209.15,0.6417
1221.2,0.474748
1233.25,0.254325
1245.31,0.0749003
1257.36,0.129532
1269.41,0.214718
1281.47,0.40571
1293.52,0.500934
1305.57,0.665393
1317.62,0.78116
1329.68,0.84733
1341.73,0.739293
1353.78,0.782236
1365.84,0.876123
1377.89,0.82025
1389.94,0.85156
1402,0.832855
1414.05,0.65018
1426.1,0.847157
1438.15,0.891916
1450.21,0.842775
1462.26,0.820302
1474.31,0.863138
1486.37,0.880154
1498.42,0.919089
1510.47,0.864234
1522.52,0.913613
1534.58,0.9176
1546.63,0.920621
1558.68,0.920339
1570.74,0.91306
1582.79,0.877839
1594.84,0.897926
1606.89,0.907831
1618.95,0.879145
1631,0.888836
1643.05,0.877659
1655.11,0.865042
1667.16,0.839877
1679.21,0.779001
1691.27,0.691243
1703.32,0.56823
1715.37,0.254268
1727.42,0.160301
1739.48,0.40689
1751.53,0.72002
1763.58,0.895786
1775.64,0.923182
1787.69,0.931381
1799.74,0.93312
1811.79,0.934614
1823.85,0.935086
1835.9,0.930946
1847.95,0.937843
1860.01,0.935864
1872.06,0.939354
1884.11,0.939729
1896.16,0.93902
1908.22,0.937155
1920.27,0.933733
1932.32,0.929633
1944.38,0.92297
1956.43,0.914407
1968.48,0.917537
1980.54,0.912329
1992.59,0.910007
2004.64,0.926628
2016.69,0.927339
2028.75,0.926541
2040.8,0.934116
2052.85,0.934176
2064.91,0.941941
2076.96,0.936178
2089.01,0.942661
2101.06,0.941515
2113.12,0.943765
2125.17,0.949157
2137.22,0.955698
2149.28,0.965543
2161.33,0.97904
2173.38,0.997824
2185.43,0.97813
2197.49,0.967876
2209.54,0.969458
2221.59,0.972633
2233.65,0.962545
2245.7,0.958939
2257.75,0.960686
2269.81,0.954817
2281.86,0.94682
2293.91,0.94382
2305.96,0.940326
2318.02,0.935573
2330.07,0.918632
2342.12,0.896825
2354.18,0.895212
2366.23,0.888025
2378.28,0.866693
2390.33,0.915166
2402.39,0.940821
2414.44,0.94834
2426.49,0.951445
2438.55,0.950959
2450.6,0.949297
2462.65,0.951234
2474.7,0.952287
2486.76,0.952215
2498.81,0.952202
2510.86,0.953515
2522.92,0.953968
2534.97,0.951432
2547.02,0.950388
2559.08,0.950848
2571.13,0.951359
2583.18,0.95009
2595.23,0.950157
2607.29,0.948017
2619.34,0.945928
2631.39,0.944514
2643.45,0.941442
2655.5,0.941115
2667.55,0.941415
2679.6,0.943246
2691.66,0.943396
2703.71,0.943467
2715.76,0.942804
2727.82,0.941261
2739.87,0.941514
2751.92,0.939436
2763.97,0.938687
2776.03,0.93795
2788.08,0.93705
2800.13,0.936049
2812.19,0.934267
2824.24,0.932821
2836.29,0.932851
2848.35,0.930647
2860.4,0.93128
2872.45,0.927974
2884.5,0.926412
2896.56,0.92498
2908.61,0.923536
2920.66,0.921427
2932.72,0.923826
2944.77,0.928186
2956.82,0.921115
2968.87,0.903473
2980.93,0.890815
2992.98,0.900455
3005.03,0.914501
3017.09,0.919659
3029.14,0.923065
3041.19,0.92635
3053.24,0.92781
3065.3,0.925176
3077.35,0.920767
3089.4,0.921866
3101.46,0.92099
3113.51,0.924669
3125.56,0.92359
3137.62,0.927152
3149.67,0.927398
3161.72,0.930044
3173.77,0.931368
3185.83,0.931014
3197.88,0.931384
3209.93,0.931155
3221.99,0.929922
3234.04,0.93348
3246.09,0.931842
3258.14,0.930501
3270.2,0.931358
3282.25,0.932114
3294.3,0.932515
3306.36,0.931512
3318.41,0.932813
3330.46,0.932462
3342.51,0.932619
3354.57,0.933208
3366.62,0.933137
3378.67,0.934729
3390.73,0.932718
3402.78,0.934171
3414.83,0.931399
3426.89,0.932894
3438.94,0.931166
3450.99,0.926049
3463.04,0.92996
3475.1,0.934109
3487.15,0.935747
3499.2,0.936889
3511.26,0.937375
3523.31,0.937602
3535.36,0.936514
3547.41,0.93127
3559.47,0.936038
3571.52,0.93438
3583.57,0.933908
3595.63,0.93656
3607.68,0.933995
3619.73,0.936757
3631.78,0.931602
3643.84,0.935384
3655.89,0.935507
3667.94,0.939434
3680,0.942306
3692.05,0.945745
3704.1,0.940852
3716.16,0.943598
3728.21,0.936838
3740.26,0.94288
3752.31,0.939699
3764.37,0.939237
3776.42,0.940867
3788.47,0.935943
3800.53,0.941681
3812.58,0.946299
3824.63,0.945125
3836.68,0.940621
3848.74,0.941492
3860.79,0.943345
3872.84,0.938502
3884.9,0.939803
3896.95,0.943773
3909,0.940345
3921.05,0.938955
3933.11,0.938707
3945.16,0.938742
3957.21,0.93834
3969.27,0.939201
3981.32,0.938239
3993.37,0.936796
4000.12,0.937966

File: PETG.csv
449.815,0.484552
461.868,0.506777
473.921,0.5024
485.974,0.480379
498.027,0.451231
510.079,0.495361
522.132,0.526364
534.185,0.543377
546.238,0.558597
558.291,0.580863
570.344,0.587212
582.397,0.589532
594.45,0.584024
606.503,0.588967
618.556,0.596943
630.609,0.591295
642.662,0.58863
654.714,0.579685
666.767,0.571957
678.82,0.545034
690.873,0.526203
702.926,0.459388
714.979,0.35539
727.032,0.0235864
739.085,0.425791
751.138,0.752106
763.191,0.727832
775.244,0.695578
787.297,0.664176
799.349,0.613856
811.402,0.647657
823.455,0.644571
835.508,0.629526
847.561,0.601823
859.614,0.596971
871.667,0.532246
883.72,0.548091
895.773,0.645685
907.826,0.650092
919.879,0.673419
931.932,0.657589
943.984,0.633193
956.037,0.572816
968.09,0.571811
980.143,0.586831
992.196,0.615505
1004.25,0.600495
1016.3,0.463575
1028.35,0.513618
1040.41,0.59299
1052.46,0.567531
1064.51,0.553088
1076.57,0.428399
1088.62,0.219619
1100.67,0.139523
1112.73,0.298339
1124.78,0.339703
1136.83,0.543711
1148.88,0.684286
1160.94,0.735093
1172.99,0.727601
1185.04,0.706047
1197.1,0.699411
1209.15,0.620014
1221.2,0.497183
1233.25,0.322921
1245.31,0.100653
1257.36,0.157287
1269.41,0.203766
1281.47,0.349831
1293.52,0.512972
1305.57,0.665627
1317.62,0.767114
1329.68,0.815093
1341.73,0.783536
1353.78,0.810497
1365.84,0.837125
1377.89,0.788043
1389.94,0.804638
1402,0.78542
1414.05,0.65404
1426.1,0.831822
1438.15,0.843905
1450.21,0.791682
1462.26,0.755082
1474.31,0.8108
1486.37,0.850067
1498.42,0.872432
1510.47,0.821176
1522.52,0.866514
1534.58,0.866229
1546.63,0.867833
1558.68,0.868305
1570.74,0.860261
1582.79,0.830192
1594.84,0.855484
1606.89,0.857457
1618.95,0.834498
1631,0.844722
1643.05,0.836592
1655.11,0.827658
1667.16,0.805119
1679.21,0.755656
1691.27,0.68721
1703.32,0.576316
1715.37,0.252206
1727.42,0.172144
1739.48,0.440707
1751.53,0.753478
1763.58,0.887738
1775.64,0.905627
1787.69,0.911086
1799.74,0.913932
1811.79,0.913769
1823.85,0.916814
1835.9,0.912663
1847.95,0.919786
1860.01,0.919488
1872.06,0.923466
1884.11,0.922086
1896.16,0.923976
1908.22,0.921384
1920.27,0.920938
1932.32,0.920361
1944.38,0.91739
1956.43,0.914659
1968.48,0.92515
1980.54,0.936151
1992.59,0.920083
2004.64,0.91621
2016.69,0.906098
2028.75,0.900444
2040.8,0.899177
2052.85,0.907739
2064.91,0.911172
2076.96,0.906048
2089.01,0.912717
2101.06,0.915912
2113.12,0.916292
2125.17,0.924703
2137.22,0.9314
2149.28,0.939268
2161.33,0.965717
2173.38,0.989507
2185.43,0.963187
2197.49,0.947612
2209.54,0.93206
2221.59,0.930497
2233.65,0.915693
2245.7,0.912558
2257.75,0.914022
2269.81,0.91284
2281.86,0.915517
2293.91,0.914419
2305.96,0.914501
2318.02,0.901054
2330.07,0.869329
2342.12,0.840909
2354.18,0.831249
2366.23,0.824894
2378.28,0.802475
2390.33,0.883398
2402.39,0.920537
2414.44,0.925062
2426.49,0.928249
2438.55,0.929933
2450.6,0.933614
2462.65,0.936452
2474.7,0.937191
2486.76,0.936943
2498.81,0.936183
2510.86,0.936661
2522.92,0.938735
2534.97,0.934884
2547.02,0.933265
2559.08,0.93114
2571.13,0.931309
2583.18,0.927497
2595.23,0.925468
2607.29,0.920603
2619.34,0.918567
2631.39,0.917459
2643.45,0.917344
2655.5,0.918957
2667.55,0.921802
2679.6,0.923911
2691.66,0.925478
2703.71,0.927151
2715.76,0.92966
2727.82,0.930872
2739.87,0.931652
2751.92,0.93084
2763.97,0.931039
2776.03,0.931351
2788.08,0.931003
2800.13,0.931049
2812.19,0.929349
2824.24,0.927225
2836.29,0.927281
2848.35,0.920778
2860.4,0.899229
2872.45,0.877147
2884.5,0.901993
2896.56,0.904562
2908.61,0.891379
2920.66,0.88148
2932.72,0.858677
2944.77,0.845815
2956.82,0.8572
2968.87,0.878223
2980.93,0.900252
2992.98,0.919057
3005.03,0.931828
3017.09,0.937121
3029.14,0.937878
3041.19,0.938263
3053.24,0.940034
3065.3,0.937035
3077.35,0.935133
3089.4,0.935203
3101.46,0.934346
3113.51,0.937012
3125.56,0.938442
3137.62,0.941532
3149.67,0.94225
3161.72,0.942482
3173.77,0.944358
3185.83,0.944704
3197.88,0.944076
3209.93,0.945657
3221.99,0.945281
3234.04,0.946319
3246.09,0.943877
3258.14,0.944986
3270.2,0.945424
3282.25,0.945929
3294.3,0.947176
3306.36,0.944521
3318.41,0.945549
3330.46,0.945172
3342.51,0.947798
3354.57,0.947009
3366.62,0.948018
3378.67,0.948008
3390.73,0.94781
3402.78,0.94942
3414.83,0.948057
3426.89,0.947947
3438.94,0.946539
3450.99,0.943069
3463.04,0.947874
3475.1,0.951939
3487.15,0.947714
3499.2,0.948897
3511.26,0.949396
3523.31,0.948041
3535.36,0.95142
3547.41,0.946002
3559.47,0.948076
3571.52,0.942172
3583.57,0.947581
3595.63,0.94811
3607.68,0.944902
3619.73,0.944044
3631.78,0.939167
3643.84,0.945897
3655.89,0.943027
3667.94,0.947569
3680,0.952303
3692.05,0.957385
3704.1,0.952376
3716.16,0.957032
3728.21,0.946342
3740.26,0.951122
3752.31,0.946552
3764.37,0.943774
3776.42,0.955226
3788.47,0.954332
3800.53,0.946953
3812.58,0.957122
3824.63,0.952478
3836.68,0.952343
3848.74,0.956361
3860.79,0.954637
3872.84,0.954333
3884.9,0.957135
3896.95,0.957381
3909,0.949865
3921.05,0.955748
3933.11,0.952022
3945.16,0.950967
3957.21,0.95201
3969.27,0.958414
3981.32,0.9545
3993.37,0.956181
4000.12,0.95897

File: PLA.csv
449.815,0.233147
461.868,0.28002
473.921,0.39294
485.974,0.597386
498.027,0.640593
510.079,0.680071
522.132,0.701938
534.185,0.617325
546.238,0.713758
558.291,0.804723
570.344,0.826148
582.397,0.817652
594.45,0.810697
606.503,0.807807
618.556,0.783047
630.609,0.767383
642.662,0.745094
654.714,0.71291
666.767,0.604646
678.82,0.604322
690.873,0.644603
702.926,0.672063
714.979,0.700999
727.032,0.760473
739.085,0.737957
751.138,0.676663
763.191,0.64332
775.244,0.741707
787.297,0.787232
799.349,0.801763
811.402,0.8081
823.455,0.809753
835.508,0.811348
847.561,0.775491
859.614,0.728926
871.667,0.625961
883.72,0.708154
895.773,0.752036
907.826,0.741673
919.879,0.726769
931.932,0.717055
943.984,0.700986
956.037,0.647571
968.09,0.615219
980.143,0.542246
992.196,0.418395
1004.25,0.25635
1016.3,0.074839
1028.35,0.0967478
1040.41,0.171859
1052.46,0.22962
1064.51,0.379138
1076.57,0.215387
1088.62,0.00291434
1100.67,0.101818
1112.73,0.298773
1124.78,0.381629
1136.83,0.318797
1148.88,0.557613
1160.94,0.712637
1172.99,0.611422
1185.04,0.165628
1197.1,0.28468
1209.15,0.413102
1221.2,0.459875
1233.25,0.609563
1245.31,0.688747
1257.36,0.705569
1269.41,0.676399
1281.47,0.70341
1293.52,0.779067
1305.57,0.776316
1317.62,0.773841
1329.68,0.777726
1341.73,0.758134
1353.78,0.706587
1365.84,0.634967
1377.89,0.666925
1389.94,0.635566
1402,0.779645
1414.05,0.850465
1426.1,0.841825
1438.15,0.83222
1450.21,0.716587
1462.26,0.596041
1474.31,0.76797
1486.37,0.847385
1498.42,0.856933
1510.47,0.860426
1522.52,0.859537
1534.58,0.866078
1546.63,0.860339
1558.68,0.86548
1570.74,0.872511
1582.79,0.856911
1594.84,0.866403
1606.89,0.861506
1618.95,0.851611
1631,0.856069
1643.05,0.848577
1655.11,0.848011
1667.16,0.850929
1679.21,0.844041
1691.27,0.836617
1703.32,0.82063
1715.37,0.782724
1727.42,0.694033
1739.48,0.545805
1751.53,0.20327
1763.58,0.15264
1775.64,0.416004
1787.69,0.625556
1799.74,0.788092
1811.79,0.835217
1823.85,0.846446
1835.9,0.851441
1847.95,0.862568
1860.01,0.860431
1872.06,0.864894
1884.11,0.866874
1896.16,0.866447
1908.22,0.860783
1920.27,0.863644
1932.32,0.865303
1944.38,0.854222
1956.43,0.851937
1968.48,0.854619
1980.54,0.854648
1992.59,0.854268
2004.64,0.870441
2016.69,0.87152
2028.75,0.879394
2040.8,0.893315
2052.85,0.89083
2064.91,0.894426
2076.96,0.890495
2089.01,0.887781
2101.06,0.88745
2113.12,0.888157
2125.17,0.893169
2137.22,0.903092
2149.28,0.915792
2161.33,0.944918
2173.38,0.989897
2185.43,0.94954
2197.49,0.938244
2209.54,0.941299
2221.59,0.935455
2233.65,0.926311
2245.7,0.918646
2257.75,0.924267
2269.81,0.912076
2281.86,0.903925
2293.91,0.8914
2305.96,0.892578
2318.02,0.87994
2330.07,0.858727
2342.12,0.837143
2354.18,0.839942
2366.23,0.826498
2378.28,0.816206
2390.33,0.861137
2402.39,0.884224
2414.44,0.898139
2426.49,0.899379
2438.55,0.89818
2450.6,0.894729
2462.65,0.896963
2474.7,0.901035
2486.76,0.896381
2498.81,0.89993
2510.86,0.901473
2522.92,0.902782
2534.97,0.901736
2547.02,0.901718
2559.08,0.900843
2571.13,0.902794
2583.18,0.902563
2595.23,0.902626
2607.29,0.897462
2619.34,0.896739
2631.39,0.893508
2643.45,0.887863
2655.5,0.88468
2667.55,0.885075
2679.6,0.885314
2691.66,0.886902
2703.71,0.885584
2715.76,0.886706
2727.82,0.884482
2739.87,0.884897
2751.92,0.88266
2763.97,0.883349
2776.03,0.882939
2788.08,0.882579
2800.13,0.881035
2812.19,0.87878
2824.24,0.87833
2836.29,0.877422
2848.35,0.875286
2860.4,0.877012
2872.45,0.875092
2884.5,0.874409
2896.56,0.868223
2908.61,0.874062
2920.66,0.873073
2932.72,0.865997
2944.77,0.858496
2956.82,0.835653
2968.87,0.830104
2980.93,0.844893
2992.98,0.856106
3005.03,0.840628
3017.09,0.826051
3029.14,0.84914
3041.19,0.865097
3053.24,0.870764
3065.3,0.873252
3077.35,0.873007
3089.4,0.872412
3101.46,0.872444
3113.51,0.87386
3125.56,0.872589
3137.62,0.872796
3149.67,0.874798
3161.72,0.873617
3173.77,0.87419
3185.83,0.874699
3197.88,0.872083
3209.93,0.873121
3221.99,0.871249
3234.04,0.872818
3246.09,0.874058
3258.14,0.872916
3270.2,0.876053
3282.25,0.877322
3294.3,0.873537
3306.36,0.87484
3318.41,0.874684
3330.46,0.876007
3342.51,0.878616
3354.57,0.878415
3366.62,0.877955
3378.67,0.877874
3390.73,0.879365
3402.78,0.878159
3414.83,0.874898
3426.89,0.876597
3438.94,0.882672
3450.99,0.878571
3463.04,0.884894
3475.1,0.883554
3487.15,0.880967
3499.2,0.879783
3511.26,0.875879
3523.31,0.881697
3535.36,0.882979
3547.41,0.877428
3559.47,0.887776
3571.52,0.885155
3583.57,0.884125
3595.63,0.891041
3607.68,0.88792
3619.73,0.883899
3631.78,0.877554
3643.84,0.884675
3655.89,0.889179
3667.94,0.881222
3680,0.889151
3692.05,0.885193
3704.1,0.878054
3716.16,0.888856
3728.21,0.876692
3740.26,0.886168
3752.31,0.880931
3764.37,0.876269
3776.42,0.888472
3788.47,0.876656
3800.53,0.879702
3812.58,0.89027
3824.63,0.891847
3836.68,0.876402
3848.74,0.882967
3860.79,0.891903
3872.84,0.871893
3884.9,0.87947
3896.95,0.887255
3909,0.881415
3921.05,0.874772
3933.11,0.878483
3945.16,0.876942
3957.21,0.876399
3969.27,0.876394
3981.32,0.876339
3993.37,0.87408
4000.12,0.876214

File: PMMA.csv
449.815,0.95828
461.868,0.957492
473.921,0.919998
485.974,0.864604
498.027,0.923694
510.079,0.926195
522.132,0.951398
534.185,0.969234
546.238,0.977688
558.291,0.967879
570.344,0.970956
582.397,0.984269
594.45,0.983405
606.503,0.97682
618.556,0.981123
630.609,0.984436
642.662,0.97812
654.714,0.977161
666.767,0.975316
678.82,0.979667
690.873,0.977804
702.926,0.974861
714.979,0.969562
727.032,0.946382
739.085,0.907486
751.138,0.719222
763.191,0.775258
775.244,0.883529
787.297,0.910939
799.349,0.898173
811.402,0.844199
823.455,0.853923
835.508,0.821804
847.561,0.716067
859.614,0.819786
871.667,0.871667
883.72,0.887152
895.773,0.8744
907.826,0.839729
919.879,0.802938
931.932,0.815976
943.984,0.791109
956.037,0.730848
968.09,0.651753
980.143,0.658805
992.196,0.596341
1004.25,0.69986
1016.3,0.870973
1028.35,0.887837
1040.41,0.862014
1052.46,0.815321
1064.51,0.671331
1076.57,0.664561
1088.62,0.672881
1100.67,0.619901
1112.73,0.523125
1124.78,0.378331
1136.83,0.19748
1148.88,0.00888224
1160.94,0.164839
1172.99,0.323835
1185.04,0.364814
1197.1,0.30985
1209.15,0.497834
1221.2,0.684136
1233.25,0.590701
1245.31,0.450845
1257.36,0.525274
1269.41,0.568992
1281.47,0.58302
1293.52,0.757473
1305.57,0.827923
1317.62,0.857636
1329.68,0.869783
1341.73,0.869389
1353.78,0.863359
1365.84,0.840208
1377.89,0.822898
1389.94,0.767923
1402,0.783539
1414.05,0.862705
1426.1,0.838489
1438.15,0.601095
1450.21,0.582697
1462.26,0.616059
1474.31,0.7018
1486.37,0.709341
1498.42,0.764435
1510.47,0.894346
1522.52,0.922574
1534.58,0.931385
1546.63,0.920617
1558.68,0.927358
1570.74,0.934292
1582.79,0.918091
1594.84,0.925807
1606.89,0.925499
1618.95,0.920969
1631,0.91091
1643.05,0.900057
1655.11,0.895984
1667.16,0.897058
1679.21,0.877106
1691.27,0.825583
1703.32,0.759308
1715.37,0.587621
1727.42,0.17574
1739.48,0.123433
1751.53,0.473375
1763.58,0.826063
1775.64,0.908491
1787.69,0.930165
1799.74,0.934483
1811.79,0.944062
1823.85,0.944179
1835.9,0.945852
1847.95,0.942931
1860.01,0.946326
1872.06,0.950251
1884.11,0.950949
1896.16,0.949066
1908.22,0.950989
1920.27,0.953805
1932.32,0.952513
1944.38,0.959618
1956.43,0.957295
1968.48,0.950023
1980.54,0.967858
1992.59,0.960073
2004.64,0.963666
2016.69,0.962087
2028.75,0.976952
2040.8,0.961839
2052.85,0.952676
2064.91,0.949693
2076.96,0.947073
2089.01,0.945447
2101.06,0.946933
2113.12,0.95275
2125.17,0.954879
2137.22,0.963104
2149.28,0.977519
2161.33,0.97428
2173.38,0.962956
2185.43,0.951206
2197.49,0.949775
2209.54,0.952547
2221.59,0.951171
2233.65,0.957653
2245.7,0.95525
2257.75,0.956559
2269.81,0.942899
2281.86,0.946718
2293.91,0.941327
2305.96,0.943452
2318.02,0.94615
2330.07,0.940896
2342.12,0.941316
2354.18,0.942361
2366.23,0.934177
2378.28,0.934262
2390.33,0.941922
2402.39,0.944782
2414.44,0.947393
2426.49,0.949824
2438.55,0.948697
2450.6,0.951736
2462.65,0.953266
2474.7,0.949363
2486.76,0.947942
2498.81,0.947969
2510.86,0.949161
2522.92,0.950242
2534.97,0.952308
2547.02,0.952041
2559.08,0.950783
2571.13,0.950413
2583.18,0.951871
2595.23,0.950006
2607.29,0.947759
2619.34,0.950061
2631.39,0.950006
2643.45,0.948389
2655.5,0.948757
2667.55,0.948564
2679.6,0.951018
2691.66,0.953599
2703.71,0.954897
2715.76,0.955666
2727.82,0.95699
2739.87,0.955388
2751.92,0.954002
2763.97,0.954501
2776.03,0.953918
2788.08,0.954947
2800.13,0.954242
2812.19,0.954442
2824.24,0.953813
2836.29,0.949394
2848.35,0.938683
2860.4,0.918178
2872.45,0.914518
2884.5,0.922525
2896.56,0.915535
2908.61,0.901101
2920.66,0.881964
2932.72,0.852266
2944.77,0.826188
2956.82,0.809191
2968.87,0.775099
2980.93,0.839523
2992.98,0.881469
3005.03,0.86137
3017.09,0.861397
3029.14,0.885727
3041.19,0.910118
3053.24,0.934918
3065.3,0.949776
3077.35,0.959435
3089.4,0.96492
3101.46,0.967406
3113.51,0.967538
3125.56,0.967818
3137.62,0.972219
3149.67,0.971844
3161.72,0.970915
3173.77,0.970333
3185.83,0.970943
3197.88,0.971571
3209.93,0.97294
3221.99,0.975136
3234.04,0.974179
3246.09,0.974707
3258.14,0.976448
3270.2,0.973812
3282.25,0.975563
3294.3,0.974813
3306.36,0.980212
3318.41,0.975875
3330.46,0.975209
3342.51,0.977413
3354.57,0.975645
3366.62,0.973617
3378.67,0.977983
3390.73,0.97729
3402.78,0.975214
3414.83,0.977449
3426.89,0.979613
3438.94,0.977936
3450.99,0.971468
3463.04,0.973636
3475.1,0.98027
3487.15,0.979963
3499.2,0.982843
3511.26,0.982198
3523.31,0.977469
3535.36,0.976482
3547.41,0.983369
3559.47,0.979034
3571.52,0.978244
3583.57,0.973295
3595.63,0.981014
3607.68,0.974882
3619.73,0.970715
3631.78,0.974061
3643.84,0.970817
3655.89,0.972382
3667.94,0.958921
3680,0.972586
3692.05,0.980127
3704.1,0.970711
3716.16,0.976465
3728.21,0.971488
3740.26,0.978927
3752.31,0.976268
3764.37,0.965004
3776.42,0.985998
3788.47,0.97384
3800.53,0.974138
3812.58,0.980417
3824.63,0.991224
3836.68,0.974018
3848.74,0.98448
3860.79,0.989114
3872.84,0.96082
3884.9,0.975714
3896.95,0.984363
3909,0.987016
3921.05,0.974068
3933.11,0.981298
3945.16,0.985518
3957.21,0.98903
3969.27,0.98081
3981.32,0.985492
3993.37,0.987256
4000.12,0.988137

File: PVA.csv
449.815,0.256456
461.868,0.240403
473.921,0.224286
485.974,0.234057
498.027,0.253141
510.079,0.259592
522.132,0.254559
534.185,0.266022
546.238,0.274448
558.291,0.27477
570.344,0.292059
582.397,0.283826
594.45,0.274513
606.503,0.213604
618.556,0.307739
630.609,0.347517
642.662,0.384648
654.714,0.405952
666.767,0.400377
678.82,0.448976
690.873,0.483338
702.926,0.456467
714.979,0.533499
727.032,0.558868
739.085,0.579692
751.138,0.588218
763.191,0.602514
775.244,0.627142
787.297,0.636473
799.349,0.598168
811.402,0.584135
823.455,0.534546
835.508,0.490211
847.561,0.500281
859.614,0.530222
871.667,0.670277
883.72,0.733712
895.773,0.682496
907.826,0.653299
919.879,0.620704
931.932,0.58489
943.984,0.517675
956.037,0.510849
968.09,0.58596
980.143,0.605963
992.196,0.555429
1004.25,0.467896
1016.3,0.281747
1028.35,0.106615
1040.41,0.239325
1052.46,0.254901
1064.51,0.282756
1076.57,0.251553
1088.62,0.190655
1100.67,0.194807
1112.73,0.339996
1124.78,0.415754
1136.83,0.455474
1148.88,0.514638
1160.94,0.769805
1172.99,0.757378
1185.04,0.718264
1197.1,0.661131
1209.15,0.568517
1221.2,0.38079
1233.25,0.113522
1245.31,0
1257.36,0.0703276
1269.41,0.192248
1281.47,0.368912
1293.52,0.585835
1305.57,0.680674
1317.62,0.671752
1329.68,0.652143
1341.73,0.666287
1353.78,0.644994
1365.84,0.516085
1377.89,0.388576
1389.94,0.550145
1402,0.693398
1414.05,0.649164
1426.1,0.6139
1438.15,0.584948
1450.21,0.629685
1462.26,0.708893
1474.31,0.799132
1486.37,0.854261
1498.42,0.887584
1510.47,0.921969
1522.52,0.922016
1534.58,0.930506
1546.63,0.930153
1558.68,0.928144
1570.74,0.923226
1582.79,0.920426
1594.84,0.918236
1606.89,0.91001
1618.95,0.890374
1631,0.893822
1643.05,0.870007
1655.11,0.846198
1667.16,0.829798
1679.21,0.82189
1691.27,0.794317
1703.32,0.668794
1715.37,0.426521
1727.42,0.348697
1739.48,0.297551
1751.53,0.466909
1763.58,0.843747
1775.64,0.949965
1787.69,0.962378
1799.74,0.967066
1811.79,0.970008
1823.85,0.970931
1835.9,0.970549
1847.95,0.970951
1860.01,0.971382
1872.06,0.970487
1884.11,0.969934
1896.16,0.970099
1908.22,0.969233
1920.27,0.973043
1932.32,0.973577
1944.38,0.970134
1956.43,0.97546
1968.48,0.978808
1980.54,0.994714
1992.59,0.979161
2004.64,0.990304
2016.69,0.988354
2028.75,0.985945
2040.8,0.983539
2052.85,0.983747
2064.91,0.973275
2076.96,0.973418
2089.01,0.971907
2101.06,0.974803
2113.12,0.98191
2125.17,0.978327
2137.22,0.983128
2149.28,0.985775
2161.33,0.984401
2173.38,0.989489
2185.43,0.97799
2197.49,0.973107
2209.54,0.96927
2221.59,0.972358
2233.65,0.977956
2245.7,0.97251
2257.75,0.968932
2269.81,0.969406
2281.86,0.971777
2293.91,0.968929
2305.96,0.967195
2318.02,0.970755
2330.07,0.968526
2342.12,0.965819
2354.18,0.963403
2366.23,0.95976
2378.28,0.957607
2390.33,0.960077
2402.39,0.963823
2414.44,0.962955
2426.49,0.964707
2438.55,0.965593
2450.6,0.96591
2462.65,0.965236
2474.7,0.963275
2486.76,0.962262
2498.81,0.959017
2510.86,0.960773
2522.92,0.961353
2534.97,0.959284
2547.02,0.960098
2559.08,0.959738
2571.13,0.959016
2583.18,0.95968
2595.23,0.956486
2607.29,0.954117
2619.34,0.950491
2631.39,0.947546
2643.45,0.942292
2655.5,0.941679
2667.55,0.939847
2679.6,0.937603
2691.66,0.936649
2703.71,0.935609
2715.76,0.935327
2727.82,0.933749
2739.87,0.929805
2751.92,0.928301
2763.97,0.925226
2776.03,0.923221
2788.08,0.920817
2800.13,0.917289
2812.19,0.912173
2824.24,0.90261
2836.29,0.88901
2848.35,0.875867
2860.4,0.85978
2872.45,0.848231
2884.5,0.842078
2896.56,0.828759
2908.61,0.795189
2920.66,0.729977
2932.72,0.701378
2944.77,0.71033
2956.82,0.710408
2968.87,0.758765
2980.93,0.832141
2992.98,0.867332
3005.03,0.887029
3017.09,0.901715
3029.14,0.906483
3041.19,0.898161
3053.24,0.895942
3065.3,0.890551
3077.35,0.87832
3089.4,0.869861
3101.46,0.85756
3113.51,0.846242
3125.56,0.831827
3137.62,0.817411
3149.67,0.799049
3161.72,0.782088
3173.77,0.76223
3185.83,0.744947
3197.88,0.723805
3209.93,0.704123
3221.99,0.684056
3234.04,0.665429
3246.09,0.651484
3258.14,0.636173
3270.2,0.62567
3282.25,0.614686
3294.3,0.608451
3306.36,0.602911
3318.41,0.600655
3330.46,0.595475
3342.51,0.596481
3354.57,0.600074
3366.62,0.599872
3378.67,0.606476
3390.73,0.615033
3402.78,0.624447
3414.83,0.635889
3426.89,0.65274
3438.94,0.666158
3450.99,0.685962
3463.04,0.705603
3475.1,0.720732
3487.15,0.743308
3499.2,0.761598
3511.26,0.784231
3523.31,0.802369
3535.36,0.825096
3547.41,0.840052
3559.47,0.861305
3571.52,0.881058
3583.57,0.901762
3595.63,0.91542
3607.68,0.928092
3619.73,0.943446
3631.78,0.95094
3643.84,0.961103
3655.89,0.973054
3667.94,0.975616
3680,0.982655
3692.05,0.989871
3704.1,0.990895
3716.16,0.995947
3728.21,0.994952
3740.26,0.996418
3752.31,0.997981
3764.37,0.992384
3776.42,0.99391
3788.47,0.99297
3800.53,0.990698
3812.58,0.9957
3824.63,0.99787
3836.68,0.995058
3848.74,0.996968
3860.79,0.997591
3872.84,0.993916
3884.9,0.995766
3896.95,0.995433
3909,0.991908
3921.05,0.996756
3933.11,0.992866
3945.16,0.991779
3957.21,0.992546
3969.27,0.992623
3981.32,0.989779
3993.37,0.993053
4000.12,0.993257