Folder: Particle_Characterisation/Raman_data

File: HDPE.csv
203.235,0.275482
211.846,0.217579
220.458,0.183456
229.07,0.159815
237.682,0.188697
246.293,0.117068
254.905,0.119197
263.517,0.102128
272.129,0.0869976
280.74,0.0659647
289.352,0.0531156
297.964,0.0884844
306.576,0.10759
315.187,0.0321841
323.799,0.0989429
332.411,0.045056
341.023,0.0707027
349.634,0.0852973
358.246,0.081491
366.858,0.121234
375.469,0.0657336
384.081,0.100681
392.693,0.0632571
401.305,0.107853
409.916,0.0669997
418.528,0.0730904
427.14,0.0886928
435.752,0.0800106
444.363,0.0472231
452.975,0.0803436
461.587,0.0785455
470.199,0.0886929
478.81,0.0674707
487.422,0.0776243
496.034,0.0492298
504.646,0.0659488
513.257,0.0769749
521.869,0.0773729
530.481,0.0882726
539.093,0.102914
547.704,0.0648533
556.316,0.095923
564.928,0.0620148
573.54,0.0625902
582.151,0.0411887
590.763,0.0334524
599.375,0.049686
607.987,0.038971
616.598,0.0307792
625.21,0.0296471
633.822,0.0448989
642.434,0.0620255
651.045,0.0821929
659.657,0.0328555
668.269,0.0427585
676.88,0.0437647
685.492,0.0111389
694.104,0.0593638
702.716,0.0386292
711.327,0.0597966
719.939,0.0658602
728.551,0.1005
737.163,0.0911705
745.774,0.0546036
754.386,0.059232
762.998,0.0816005
771.61,0.0990385
780.221,0.0241686
788.833,0.0732244
797.445,0.116483
806.057,0.0638037
814.668,0.0716123
823.28,0.0742096
831.892,0.114831
840.504,0.122525
849.115,0.121563
857.727,0.126966
866.339,0.141358
874.951,0.161446
883.562,0.144374
892.174,0.102131
900.786,0.139474
909.398,0.0618325
918.009,0.0607653
926.621,0.0802718
935.233,0.0641098
943.845,0.052686
952.456,0.0378751
961.068,0.0426795
969.68,0.0662911
978.291,0.0388111
986.903,0.0505717
995.515,0.0783886
1004.13,0.0980804
1012.74,0.104842
1021.35,0.0694189
1029.96,0.107681
1038.57,0.247459
1047.19,0.448388
1055.8,0.660358
1064.41,0.695506
1073.02,0.61742
1081.63,0.492162
1090.24,0.390227
1098.86,0.295291
1107.47,0.41727
1116.08,0.598013
1124.69,0.722479
1133.3,0.668369
1141.91,0.521675
1150.53,0.36742
1159.14,0.196861
1167.75,0.136865
1176.36,0.125166
1184.97,0.0650144
1193.59,0.0354011
1202.2,0.0701452
1210.81,0.0528663
1219.42,0.0738858
1228.03,0.0778196
1236.64,0.0820596
1245.26,0.122177
1253.87,0.116967
1262.48,0.170575
1271.09,0.327771
1279.7,0.623323
1288.31,0.854138
1296.93,0.974393
1305.54,0.783591
1314.15,0.531657
1322.76,0.28457
1331.37,0.169566
1339.98,0.0930597
1348.6,0.11085
1357.21,0.0959124
1365.82,0.107815
1374.43,0.100107
1383.04,0.0886526
1391.66,0.0938999
1400.27,0.149355
1408.88,0.267337
1417.49,0.503348
1426.1,0.707227
1434.71,0.97546
1443.33,0.980573
1451.94,0.945908
1460.55,0.770804
1469.16,0.573562
1477.77,0.372465
1486.38,0.227462
1495,0.144851
1503.61,0.057133
1512.22,0.0590845
1520.83,0.0498634
1529.44,0.0537436
1538.05,0.0281221
1546.67,0.063332
1555.28,0.0589422
1563.89,0.0628467
1572.5,0.0592699
1581.11,0.0618721
1589.73,0.0421843
1598.34,0.0564258
1606.95,0.0747474
1615.56,0.0863442
1624.17,0.0631862
1632.78,0.0785578
1641.4,0.0687003
1650.01,0.0637951
1658.62,0.0687414
1667.23,0.0984134
1675.84,0.0804137
1684.45,0.0702666
1693.07,0.0792382
1701.68,0.0902027
1710.29,0.0619821
1718.9,0.0769045
1727.51,0.0565715
1736.12,0.0656756
1744.74,0.0530512
1753.35,0.0630028
1761.96,0.0454517
1770.57,0.0694235
1779.18,0.0465595
1787.8,0.046641
1796.41,0.0451629
1805.02,0.0394682
1813.63,0.0504289
1822.24,0.0461953
1830.85,0.0594078
1839.47,0.0609619
1848.08,0.0744595
1856.69,0.0609974
1865.3,0.0550052
1873.91,0.0514554
1882.52,0.0612266
1891.14,0.0651322
1899.75,0.0601819
1908.36,0.0502297
1916.97,0.0688997
1925.58,0.0383169
1934.19,0.075287
1942.81,0.0516668
1951.42,0.0517171
1960.03,0.0547147
1968.64,0.0373817
1977.25,0.0763184
1985.87,0.0477193
1994.48,0.0669114
2003.09,0.0511724
2011.7,0.0512553
2020.31,0.0875338
2028.92,0.0456897
2037.54,0.0553014
2046.15,0.0484943
2054.76,0.0479273
2063.37,0.0562099
2071.98,0.0663173
2080.59,0.0480575
2089.21,0.0466214
2097.82,0.0600113
2106.43,0.0575817
2115.04,0.0652357
2123.65,0.07369
2132.27,0.0546653
2140.88,0.0760094
2149.49,0.0470668
2158.1,0.0631372
2166.71,0.0730527
2175.32,0.0700304
2183.94,0.0598951
2192.55,0.068292
2201.16,0.0696077
2209.77,0.0569799
2218.38,0.0773963
2226.99,0.0674324
2235.61,0.0732007
2244.22,0.0583549
2252.83,0.0562254
2261.44,0.0500066
2270.05,0.0607475
2278.66,0.0655667
2287.28,0.0651882
2295.89,0.0617725
2304.5,0.0655034
2313.11,0.0618251
2321.72,0.0684958
2330.34,0.0621309
2338.95,0.0544062
2347.56,0.0647481
2356.17,0.042211
2364.78,0.0705678
2373.39,0.0659336
2382.01,0.0784885
2390.62,0.0419039
2399.23,0.0476087
2407.84,0.0688433
2416.45,0.0666753
2425.06,0.0531528
2433.68,0.0581527
2442.29,0.0592295
2450.9,0.0624433
2459.51,0.0715939
2468.12,0.054776
2476.73,0.0527995
2485.35,0.0511207
2493.96,0.0584259
2502.57,0.064481
2511.18,0.065833
2519.79,0.0621799
2528.41,0.0475532
2537.02,0.077827
2545.63,0.0636177
2554.24,0.0600241
2562.85,0.064486
2571.46,0.0691332
2580.08,0.0631134
2588.69,0.0659494
2597.3,0.0733712
2605.91,0.0636115
2614.52,0.0652543
2623.13,0.0596307
2631.75,0.0535857
2640.36,0.0564378
2648.97,0.0584954
2657.58,0.0484238
2666.19,0.0631918
2674.8,0.0704412
2683.42,0.0734342
2692.03,0.071887
2700.64,0.0670308
2709.25,0.0

File: LDPE.csv
200.826,0.054583
208.638,0.0769246
216.45,0.114697
224.263,0.142761
232.075,0.168214
239.887,0.134183
247.699,0.160004
255.511,0.214338
263.324,0.271405
271.136,0.23651
278.948,0.236792
286.76,0.175612
294.572,0.102941
302.385,0.0905013
310.197,0.11766
318.009,0.130195
325.821,0.0841976
333.633,0.0714298
341.446,0.0857349
349.258,0.0946903
357.07,0.161618
364.882,0.141345
372.694,0.221179
380.507,0.118905
388.319,0.165508
396.131,0.182976
403.943,0.257793
411.755,0.316829
419.568,0.359513
427.38,0.427361
435.192,0.502947
443.004,0.544936
450.816,0.531096
458.629,0.461134
466.441,0.346369
474.253,0.270468
482.065,0.254164
489.877,0.217863
497.69,0.0644931
505.502,0.0436004
513.314,0.0713204
521.126,0.0937255
528.938,0.129624
536.751,0.142616
544.563,0.111377
552.375,0.127886
560.187,0.104536
567.999,0.122362
575.812,0.207167
583.624,0.274969
591.436,0.405295
599.248,0.476628
607.06,0.451118
614.873,0.411891
622.685,0.328308
630.497,0.229125
638.309,0.202212
646.121,0.149605
653.934,0.125566
661.746,0.13037
669.558,0.122616
677.37,0.256132
685.182,0.280939
692.995,0.103448
700.807,0.0953591
708.619,0.136437
716.431,0.156158
724.243,0.100715
732.056,0.0699392
739.868,0.158263
747.68,0.32537
755.492,0.181304
763.304,0.0451565
771.117,0.0983856
778.929,0.136475
786.741,0.155911
794.553,0.128027
802.365,0.128319
810.178,0.112662
817.99,0.105231
825.802,0.0951351
833.614,0.163161
841.426,0.223949
849.239,0.263839
857.051,0.270531
864.863,0.268066
872.675,0.237421
880.487,0.166632
888.3,0.175207
896.112,0.108866
903.924,0.0817859
911.736,0.111432
919.548,0.12411
927.361,0.128487
935.173,0.164526
942.985,0.155431
950.797,0.129216
958.609,0.103295
966.422,0.043928
974.234,0.0720105
982.046,0.067015
989.858,0.0977783
997.67,0.120211
1005.48,0.131311
1013.29,0.16483
1021.11,0.132189
1028.92,0.108482
1036.73,0.121585
1044.54,0.111538
1052.36,0.2715
1060.17,0.533246
1067.98,0.424076
1075.79,0.378898
1083.6,0.526429
1091.42,0.37656
1099.23,0.187233
1107.04,0.129356
1114.85,0.172924
1122.67,0.340659
1130.48,0.324276
1138.29,0.194941
1146.1,0.164173
1153.91,0.0916178
1161.73,0.155986
1169.54,0.131407
1177.35,0.114283
1185.16,0.141219
1192.98,0.100403
1200.79,0.0717575
1208.6,0.106201
1216.41,0.107576
1224.22,0.0882501
1232.04,0.103311
1239.85,0.117776
1247.66,0.152195
1255.47,0.181021
1263.29,0.204624
1271.1,0.208876
1278.91,0.277981
1286.72,0.593188
1294.53,0.931684
1302.35,0.736969
1310.16,0.538326
1317.97,0.39598
1325.78,0.361978
1333.6,0.420029
1341.41,0.455826
1349.22,0.222034
1357.03,0.155736
1364.84,0.128198
1372.66,0.0907595
1380.47,0.111833
1388.28,0.0981565
1396.09,0.0920981
1403.9,0.131282
1411.72,0.243573
1419.53,0.378723
1427.34,0.629747
1435.15,0.994047
1442.97,0.949807
1450.78,0.814818
1458.59,0.626301
1466.4,0.373646
1474.21,0.207722
1482.03,0.15123
1489.84,0.11227
1497.65,0.109576
1505.46,0.120593
1513.28,0.12041
1521.09,0.418804
1528.9,0.585766
1536.71,0.230657
1544.52,0.0925823
1552.34,0.106422
1560.15,0.104658
1567.96,0.0935655
1575.77,0.120619
1583.59,0.137976
1591.4,0.128638
1599.21,0.156171
1607.02,0.168784
1614.83,0.139326
1622.65,0.0920869
1630.46,0.0774565
1638.27,0.0771245
1646.08,0.0992446
1653.9,0.116213
1661.71,0.114708
1669.52,0.111427
1677.33,0.150578
1685.14,0.12585
1692.96,0.0846882
1700.77,0.102917
1708.58,0.104858
1716.39,0.101323
1724.21,0.160459
1732.02,0.133619
1739.83,0.132507
1747.64,0.140461
1755.45,0.117453
1763.27,0.124135
1771.08,0.12394
1778.89,0.114585
1786.7,0.0831157
1794.51,0.103164
1802.33,0.121452
1810.14,0.0933192
1817.95,0.103089
1825.76,0.14541
1833.58,0.122061
1841.39,0.114225
1849.2,0.12607
1857.01,0.130499
1864.82,0.11181
1872.64,0.103571
1880.45,0.0964411
1888.26,0.108371
1896.07,0.110698
1903.89,0.107956
1911.7,0.107122
1919.51,0.14689
1927.32,0.141167
1935.13,0.106695
1942.95,0.123446
1950.76,0.146065
1958.57,0.112929
1966.38,0.0928281
1974.2,0.11389
1982.01,0.115304
1989.82,0.106042
1997.63,0.10544
2005.44,0.109419
2013.26,0.128787
2021.07,0.137204
2028.88,0.10381
2036.69,0.0970916
2044.51,0.130825
2052.32,0.117399
2060.13,0.0898578
2067.94,0.101909
2075.75,0.121904
2083.57,0.126259
2091.38,0.103962
2099.19,0.114989
2107,0.136755
2114.82,0.127364
2122.63,0.111378
2130.44,0.102194
2138.25,0.113205
2146.06,0.106916
2153.88,0.0912804
2161.69,0.0946881
2169.5,0.132239
2177.31,0.133872
2185.12,0.103584
2192.94,0.121886
2200.75,0.144741
2208.56,0.104215
2216.37,0.104053
2224.19,0.126357
2232,0.127091

File: Nylon 6.csv
200.235,0.447349
205.469,0.423046
210.703,0.39936
215.937,0.379035
221.171,0.373217
226.405,0.338634
231.639,0.309199
236.873,0.274147
242.107,0.237023
247.341,0.216858
252.575,0.187683
257.809,0.175172
263.042,0.154207
268.276,0.178799
273.51,0.136699
278.744,0.12666
283.978,0.137166
289.212,0.138334
294.446,0.137922
299.68,0.106112
304.914,0.0984659
310.148,0.0887037
315.382,0.0766505
320.616,0.0663807
325.85,0.0710951
331.083,0.0564921
336.317,0.0494271
341.551,0.0528587
346.785,0.0342898
352.019,0.0411894
357.253,0.0434023
362.487,0.0508115
367.721,0.0534577
372.955,0.0429789
378.189,0.0193966
383.423,0.0140805
388.657,0.00505914
393.891,0.00348032
399.124,0.00421301
404.358,0.0022535
409.592,0.00277782
414.826,0.00875812
420.06,0.0183185
425.294,0.0290845
430.528,0.0325847
435.762,0.0336623
440.996,0.0266845
446.23,0.0251113
451.464,0.018948
456.698,0.00939914
461.932,0.00721889
467.165,0.00742592
472.399,0.00922934
477.633,0.0122636
482.867,0.0159083
488.101,0.014768
493.335,0.0223572
498.569,0.0240654
503.803,0.0321136
509.037,0.0338609
514.271,0.03834
519.505,0.0461431
524.739,0.0467666
529.973,0.0568921
535.206,0.0743887
540.44,0.0664834
545.674,0.0441724
550.908,0.0243963
556.142,0.0158617
561.376,0.0198128
566.61,0.0396871
571.844,0.0655328
577.078,0.106169
582.312,0.123191
587.546,0.123059
592.78,0.116614
598.014,0.114944
603.247,0.109792
608.481,0.100061
613.715,0.0929673
618.949,0.0784298
624.183,0.0739922
629.417,0.0656857
634.651,0.0612193
639.885,0.0560868
645.119,0.0360562
650.353,0.0352759
655.587,0.0209318
660.821,0.0147895
666.055,0.011765
671.288,0.00656504
676.522,0.00531486
681.756,0.013399
686.99,0.0202881
692.224,0.0269391
697.458,0.0199359
702.692,0.0252378
707.926,0.0287479
713.16,0.0380278
718.394,0.032318
723.628,0.0214971
728.862,0.0218682
734.096,0.0289696
739.329,0.0284749
744.563,0.0218013
749.797,0.0159281
755.031,0.0131113
760.265,0.0194156
765.499,0.035785
770.733,0.0514809
775.967,0.0387819
781.201,0.020309
786.435,0.00551782
791.669,0.0259662
796.903,0.0831679
802.137,0.101712
807.37,0.0682489
812.604,0.0249519
817.838,0.0133245
823.072,0.0324517
828.306,0.0591186
833.54,0.0732607
838.774,0.0961976
844.008,0.101118
849.242,0.0972113
854.476,0.101345
859.71,0.0991743
864.944,0.0944653
870.178,0.0873241
875.411,0.10509
880.645,0.119848
885.879,0.115003
891.113,0.120487
896.347,0.115934
901.581,0.111927
906.815,0.11882
912.049,0.141951
917.283,0.189362
922.517,0.266099
927.751,0.410245
932.985,0.452967
938.219,0.35136
943.452,0.202924
948.686,0.147691
953.92,0.144401
959.154,0.170731
964.388,0.19512
969.622,0.178649
974.856,0.151684
980.09,0.110026
985.324,0.0860171
990.558,0.06409
995.792,0.0554558
1001.03,0.0621731
1006.26,0.0490447
1011.49,0.0250986
1016.73,0.0183489
1021.96,0.0187321
1027.2,0.0337646
1032.43,0.0644818
1037.66,0.109797
1042.9,0.139405
1048.13,0.169188
1053.36,0.310122
1058.6,0.542557
1063.83,0.653096
1069.07,0.664113
1074.3,0.631479
1079.53,0.574179
1084.77,0.458657
1090,0.363839
1095.24,0.292759
1100.47,0.287048
1105.7,0.287149
1110.94,0.300899
1116.17,0.420769
1121.41,0.750648
1126.64,0.92745
1131.87,0.675248
1137.11,0.253898
1142.34,0.0397712
1147.58,0.00675722
1152.81,0.0265488
1158.04,0.0673237
1163.28,0.120639
1168.51,0.149676
1173.75,0.129236
1178.98,0.0863133
1184.21,0.0613291
1189.45,0.0579822
1194.68,0.102317
1199.91,0.163208
1205.15,0.165261
1210.38,0.135559
1215.62,0.0987359
1220.85,0.0829509
1226.08,0.0918005
1231.32,0.143207
1236.55,0.179077
1241.79,0.193296
1247.02,0.185918
1252.25,0.19545
1257.49,0.2261
1262.72,0.271843
1267.96,0.33223
1273.19,0.479384
1278.42,0.614622
1283.66,0.595892
1288.89,0.493186
1294.13,0.466048
1299.36,0.555683
1304.59,0.676281
1309.83,0.619834
1315.06,0.43867
1320.29,0.27047
1325.53,0.18602
1330.76,0.137018
1336,0.112308
1341.23,0.117763
1346.46,0.138868
1351.7,0.149046
1356.93,0.138897
1362.17,0.156179
1367.4,0.184145
1372.63,0.19476
1377.87,0.200762
1383.1,0.190063
1388.34,0.162977
1393.57,0.111387
1398.8,0.0795448
1404.04,0.0773869
1409.27,0.121173
1414.51,0.189654
1419.74,0.247926
1424.97,0.293032
1430.21,0.430346
1435.44,0.677821
1440.68,0.949811
1445.91,0.959345
1451.14,0.683762
1456.38,0.429065
1461.61,0.36027
1466.84,0.363312
1472.08,0.335568
1477.31,0.299784
1482.55,0.226134
1487.78,0.119331
1493.01,0.0559785
1498.25,0.0257149
1503.48,0.0166099
1508.72,0.0104063
1513.95,0.0118571
1519.18,0.0162676
1524.42,0.0186783
1529.65,0.0256873
1534.89,0.0293545
1540.12,0.0292229
1545.35,0.0299604
1550.59,0.02877
1555.82,0.0263949
1561.06,0.0173929
1566.29,0.018755
1571.52,0.017567
1576.76,0.0118412
1581.99,0.0140223
1587.22,0.0168422
1592.46,0.016877
1597.69,0.0238744
1602.93,0.0370085
1608.16,0.0464765
1613.39,0.0569193
1618.63,0.0872716
1623.86,0.144413
1629.1,0.305124
1634.33,0.436879
1639.56,0.384955
1644.8,0.247749
1650.03,0.167835
1655.27,0.133156
1660.5,0.112733
1665.73,0.0890476
1670.97,0.0587459
1676.2,0.0444076
1681.44,0.0299276
1686.67,0.0254155
1691.9,0.0223801
1697.14,0.0174741
1702.37,0.0177882
1707.61,0.0162148
1712.84,0.0187459
1718.07,0.0184836
1723.31,0.0198755
1728.54,0.0203109
1733.77,0.0222679
1739.01,0.0213919
1744.24,0.025329
1746.86,0.0237382

File: PETG.csv
200.376,0.054766
206.385,0.0845829
212.394,0.0747294
218.404,0.0793283
224.413,0.0728227
230.422,0.0737337
236.431,0.0875267
242.44,0.093431
248.449,0.139616
254.458,0.166
260.467,0.231053
266.476,0.269011
272.485,0.245003
278.494,0.213087
284.503,0.136338
290.513,0.110494
296.522,0.0972808
302.531,0.103328
308.54,0.0760089
314.549,0.0721504
320.558,0.039575
326.567,0.0328619
332.576,0.0230784
338.585,0.0451823
344.594,0.0701785
350.603,0.0889797
356.613,0.0898741
362.622,0.0842545
368.631,0.0743175
374.64,0.0547763
380.649,0.0355853
386.658,0.0626709
392.667,0.0364203
398.676,0.060171
404.685,0.0993116
410.694,0.101183
416.703,0.0861222
422.713,0.0645214
428.722,0.0467515
434.731,0.0615692
440.74,0.0725958
446.749,0.0554092
452.758,0.0582248
458.767,0.0783296
464.776,0.0941576
470.785,0.0774983
476.794,0.0730799
482.803,0.056367
488.813,0.0663533
494.822,0.0452412
500.831,0.0562848
506.84,0.0448123
512.849,0.0763867
518.858,0.0572031
524.867,0.0592544
530.876,0.0734277
536.885,0.0888947
542.894,0.0647501
548.903,0.0653382
554.912,0.0565737
560.922,0.0449163
566.931,0.0622746
572.94,0.0496431
578.949,0.0500241
584.958,0.0882201
590.967,0.0704672
596.976,0.0432726
602.985,0.0683094
608.994,0.0495911
615.003,0.0612788
621.012,0.08714
627.022,0.185211
633.031,0.542837
639.04,0.162134
645.049,0.0913978
651.058,0.0708859
657.067,0.0808428
663.076,0.0739694
669.085,0.0686372
675.094,0.0654916
681.103,0.0687013
687.112,0.0443384
693.122,0.0658702
699.131,0.141817
705.14,0.223641
711.149,0.160686
717.158,0.0743716
723.167,0.0803155
729.176,0.0559572
735.185,0.0777799
741.194,0.077185
747.203,0.0585026
753.212,0.0683693
759.222,0.0793678
765.231,0.117359
771.24,0.166344
777.249,0.146804
783.258,0.150086
789.267,0.174471
795.276,0.229329
801.285,0.191773
807.294,0.176198
813.303,0.193181
819.312,0.17598
825.321,0.16474
831.331,0.179245
837.34,0.201078
843.349,0.261421
849.358,0.334784
855.367,0.405319
861.376,0.394547
867.385,0.339279
873.394,0.274991
879.403,0.237183
885.412,0.192555
891.421,0.151077
897.431,0.128045
903.44,0.0764177
909.449,0.0878007
915.458,0.0674159
921.467,0.0736797
927.476,0.0684591
933.485,0.0695229
939.494,0.0636493
945.503,0.0370801
951.512,0.033985
957.521,0.0449505
963.531,0.0116034
969.54,0.0377173
975.549,0.0350295
981.558,0.0502838
987.567,0.0380377
993.576,0.0434853
999.585,0.0750292
1005.59,0.0711551
1011.6,0.0594439
1017.61,0.077748
1023.62,0.068692
1029.63,0.0768501
1035.64,0.0611918
1041.65,0.0590988
1047.66,0.0584746
1053.67,0.0434573
1059.68,0.0539787
1065.69,0.0583354
1071.69,0.0690625
1077.7,0.0905367
1083.71,0.0746535
1089.72,0.120331
1095.73,0.130219
1101.74,0.143196
1107.75,0.184004
1113.76,0.177689
1119.77,0.175458
1125.78,0.101953
1131.79,0.0775053
1137.79,0.0521562
1143.8,0.0483147
1149.81,0.0475921
1155.82,0.0715593
1161.83,0.0860153
1167.84,0.101786
1173.85,0.155805
1179.86,0.14023
1185.87,0.0706951
1191.88,0.0725285
1197.89,0.0609966
1203.89,0.0324223
1209.9,0.0497969
1215.91,0.0710824
1221.92,0.091813
1227.93,0.105314
1233.94,0.0953896
1239.95,0.139201
1245.96,0.167834
1251.97,0.210879
1257.98,0.251113
1263.98,0.286382
1269.99,0.330931
1276,0.416315
1282.01,0.442251
1288.02,0.415766
1294.03,0.317512
1300.04,0.236854
1306.05,0.243732
1312.06,0.220551
1318.07,0.19461
1324.08,0.176633
1330.08,0.154063
1336.09,0.128074
1342.1,0.131139
1348.11,0.149505
1354.12,0.16154
1360.13,0.10713
1366.14,0.121653
1372.15,0.10886
1378.16,0.107238
1384.17,0.124022
1390.18,0.0985541
1396.18,0.0924153
1402.19,0.111467
1408.2,0.129453
1414.21,0.109138
1420.22,0.0753547
1426.23,0.0489593
1432.24,0.061325
1438.25,0.112774
1444.26,0.107779
1450.27,0.114972
1456.28,0.118363
1462.28,0.087248
1468.29,0.0740808
1474.3,0.0816177
1480.31,0.0492254
1486.32,0.0543039
1492.33,0.041321
1498.34,0.0404038
1504.35,0.0224041
1510.36,0.0351763
1516.37,0.0538261
1522.38,0.0364466
1528.38,0.0471101
1534.39,0.0525362
1540.4,0.0428
1546.41,0.0530522
1552.42,0.0571429
1558.43,0.0602014
1564.44,0.0748947
1570.45,0.0795397
1576.46,0.0945458
1582.47,0.105373
1588.48,0.123763
1594.48,0.176376
1600.49,0.277684
1606.5,0.565851
1612.51,0.984445
1618.52,0.4963
1624.53,0.167405
1630.54,0.104897
1636.55,0.0734236
1642.56,0.0588073
1648.57,0.0678869
1654.58,0.0644902
1660.58,0.0773609
1666.59,0.0522613
1672.6,0.0660654
1678.61,0.0578214
1684.62,0.0707778
1690.63,0.0649623
1696.64,0.0783478
1702.65,0.0787968
1708.66,0.145025
1714.67,0.278639
1720.68,0.411232
1726.68,0.443297
1732.69,0.386552
1738.7,0.272509
1744.71,0.153598
1750.72,0.0970506
1756.73,0.105416
1762.74,0.0715432
1768.75,0.071729
1774.76,0.0434209
1780.77,0.0531118
1786.78,0.0455355
1792.78,0.0637132
1798.79,0.0650984
1804.8,0.0527122
1810.81,0.0379604
1816.82,0.0616711
1822.83,0.0538244
1828.84,0.0548043
1834.85,0.0601332
1840.86,0.0438736
1845.66,0.057684

File: PLA.csv
200.235,0.243861
205.469,0.210488
210.703,0.195973
215.937,0.166322
221.171,0.175058
226.405,0.139897
231.639,0.114188
236.873,0.130449
242.107,0.107954
247.341,0.127999
252.575,0.0998633
257.809,0.072504
263.042,0.0722319
268.276,0.0582768
273.51,0.0657146
278.744,0.0767462
283.978,0.111885
289.212,0.127338
294.446,0.19182
299.68,0.222821
304.914,0.23967
310.148,0.233799
315.382,0.239564
320.616,0.200454
325.85,0.187005
331.083,0.13414
336.317,0.0883286
341.551,0.0973079
346.785,0.0921084
352.019,0.0836084
357.253,0.108292
362.487,0.11606
367.721,0.103163
372.955,0.125496
378.189,0.14752
383.423,0.184938
388.657,0.278169
393.891,0.326508
399.124,0.39747
404.358,0.379295
409.592,0.355549
414.826,0.31886
420.06,0.198875
425.294,0.144407
430.528,0.123682
435.762,0.0437214
440.996,0.0659768
446.23,0.0456772
451.464,0.00951577
456.698,0.0310932
461.932,0.037923
467.165,0.0353906
472.399,0.0586575
477.633,0.0255019
482.867,0.0462875
488.101,0.0268083
493.335,0.0334598
498.569,0.0378378
503.803,0.0399664
509.037,0.0505497
514.271,0.072477
519.505,0.0683899
524.739,0.0535803
529.973,0.0612233
535.206,0.045481
540.44,0.0739818
545.674,0.0530081
550.908,0.032516
556.142,0.0466163
561.376,0.04975
566.61,0.0584366
571.844,0.0609482
577.078,0.0452856
582.312,0.0745694
587.546,0.0736037
592.78,0.0805454
598.014,0.0827754
603.247,0.0902737
608.481,0.0777722
613.715,0.0908307
618.949,0.0710243
624.183,0.100477
629.417,0.0827113
634.651,0.0896539
639.885,0.110012
645.119,0.102962
650.353,0.106998
655.587,0.113087
660.821,0.111532
666.055,0.125393
671.288,0.181048
676.522,0.190739
681.756,0.207208
686.99,0.213835
692.224,0.17432
697.458,0.175594
702.692,0.153113
707.926,0.150852
713.16,0.162724
718.394,0.121895
723.628,0.119447
728.862,0.148025
734.096,0.163054
739.329,0.143261
744.563,0.145831
749.797,0.163261
755.031,0.0987374
760.265,0.123082
765.499,0.111222
770.733,0.106563
775.967,0.0938324
781.201,0.138248
786.435,0.0960168
791.669,0.12588
796.903,0.259591
802.137,0.262224
807.37,0.211408
812.604,0.11167
817.838,0.0635474
823.072,0.0417156
828.306,0.0793599
833.54,0.0403682
838.774,0.089014
844.008,0.114835
849.242,0.158157
854.476,0.255187
859.71,0.404704
864.944,0.656728
870.178,0.950407
875.411,0.93299
880.645,0.667316
885.879,0.367846
891.113,0.192405
896.347,0.143827
901.581,0.138487
906.815,0.124479
912.049,0.109919
917.283,0.130952
922.517,0.140939
927.751,0.125308
932.985,0.111219
938.219,0.0841349
943.452,0.0460649
948.686,0.0772478
953.92,0.0665052
959.154,0.132646
964.388,0.188467
969.622,0.150541
974.856,0.0720877
980.09,0.0279795
985.324,0.0356691
990.558,0.0205152
995.792,0.0143617
1001.03,0.0601513
1006.26,0.0629986
1011.49,0.0711077
1016.73,0.0847076
1021.96,0.0921434
1027.2,0.121623
1032.43,0.188743
1037.66,0.281336
1042.9,0.310087
1048.13,0.263775
1053.36,0.196832
1058.6,0.145877
1063.83,0.0843459
1069.07,0.0933229
1074.3,0.0953642
1079.53,0.125854
1084.77,0.174747
1090,0.236144
1095.24,0.253217
1100.47,0.229043
1105.7,0.19978
1110.94,0.164081
1116.17,0.17909
1121.41,0.258419
1126.64,0.289279
1131.87,0.301298
1137.11,0.225463
1142.34,0.128241
1147.58,0.0970785
1152.81,0.0943585
1158.04,0.0745798
1163.28,0.0697704
1168.51,0.0744467
1173.75,0.076781
1178.98,0.134479
1184.21,0.147376
1189.45,0.099014
1194.68,0.0553582
1199.91,0.0718602
1205.15,0.0771442
1210.38,0.0837527
1215.62,0.119478
1220.85,0.107079
1226.08,0.0796636
1231.32,0.0720964
1236.55,0.0666423
1241.79,0.0684796
1247.02,0.0612585
1252.25,0.0663842
1257.49,0.0635498
1262.72,0.0821849
1267.96,0.0852665
1273.19,0.0600579
1278.42,0.0845335
1283.66,0.0965694
1288.89,0.162393
1294.13,0.178394
1299.36,0.204127
1304.59,0.158025
1309.83,0.157619
1315.06,0.118213
1320.29,0.11378
1325.53,0.109782
1330.76,0.107068
1336,0.11337
1341.23,0.155896
1346.46,0.192434
1351.7,0.199262
1356.93,0.150901
1362.17,0.105921
1367.4,0.0891505
1372.63,0.0881937
1377.87,0.0993671
1383.1,0.135916
1388.34,0.116871
1393.57,0.104354
1398.8,0.0550221
1404.04,0.0584493
1409.27,0.0554423
1414.51,0.0519494
1419.74,0.0371606
1424.97,0.0608344
1430.21,0.0686994
1435.44,0.123701
1440.68,0.206934
1445.91,0.285488
1451.14,0.308147
1456.38,0.319061
1461.61,0.261746
1466.84,0.142113
1472.08,0.101672
1477.31,0.066063
1482.55,0.0602636
1487.78,0.0405218
1493.01,0.0233617
1498.25,0.035211
1503.48,0.0297444
1508.72,0.0254906
1513.95,0.0102349
1519.18,0.0428952
1524.42,0.0438096
1529.65,0.0339234
1534.89,0.0398609
1540.12,0.0204723
1545.35,0.035344
1550.59,0.0413555
1555.82,0.0425502
1561.06,0.0580155
1566.29,0.0556595
1571.52,0.0588656
1576.76,0.070091
1581.99,0.0722997
1587.22,0.0715283
1592.46,0.0756663
1597.69,0.07999
1602.93,0.0899558
1608.16,0.0927386
1613.39,0.0875489
1618.63,0.0797172
1623.86,0.079986
1629.1,0.085041
1634.33,0.0937162
1639.56,0.0894867
1644.8,0.104973
1650.03,0.0921928
1655.27,0.101685
1660.5,0.115772
1665.73,0.123224
1670.97,0.127269
1676.2,0.109795
1681.44,0.125213
1686.67,0.138863
1691.9,0.125956
1697.14,0.131117
1702.37,0.13965
1707.61,0.1417
1712.84,0.145569
1718.07,0.160837
1723.31,0.159673
1728.54,0.153849
1733.77,0.163226
1739.01,0.200246
1744.24,0.231939
1746.86,0.262057