Folder: Particle_Characterisation/Raman_data (part 2)

File: Silicone.csv
200.376,0.574137
206.385,0.466897
212.394,0.365475
218.404,0.271363
224.413,0.206156
230.422,0.159706
236.431,0.125276
242.44,0.0890869
248.449,0.0755299
254.458,0.0570823
260.467,0.0501593
266.476,0.0439999
272.485,0.0168421
278.494,0.0256347
284.503,0.0175005
290.513,0.0117506
296.522,0.0147705
302.531,0.0202824
308.54,0.0155913
314.549,0.0222535
320.558,0.0263395
326.567,0.022068
332.576,0.0410694
338.585,0.0208741
344.594,0.0332044
350.603,0.0307083
356.613,0.0342006
362.622,0.0269233
368.631,0.0253081
374.64,0.0168479
380.649,0.019996
386.658,0.0166969
392.667,0.0199513
398.676,0.0186905
404.685,0.0220842
410.694,0.0157569
416.703,0.00878685
422.713,0.0154531
428.722,0.013788
434.731,0.0102267
440.74,0.0217201
446.749,0.0164774
452.758,0.0464129
458.767,0.0718863
464.776,0.113453
470.785,0.192205
476.794,0.351214
482.803,0.638382
488.813,0.942532
494.822,0.970006
500.831,0.769897
506.84,0.51347
512.849,0.343623
518.858,0.229546
524.867,0.153108
530.876,0.125212
536.885,0.0852463
542.894,0.0771364
548.903,0.0513996
554.912,0.0510773
560.922,0.0308089
566.931,0.0279072
572.94,0.0226348
578.949,0.0191156
584.958,0.0149253
590.967,0.0166928
596.976,0.015447
602.985,0.0229099
608.994,0.0107342
615.003,0.0130359
621.012,0.0222646
627.022,0.0191364
633.031,0.0229032
639.04,0.019392
645.049,0.014327
651.058,0.0223031
657.067,0.0355445
663.076,0.0489161
669.085,0.0765234
675.094,0.0924969
681.103,0.17026
687.112,0.244233
693.122,0.272396
699.131,0.301686
705.14,0.418159
711.149,0.583197
717.158,0.440072
723.167,0.18428
729.176,0.088742
735.185,0.0496089
741.194,0.0369262
747.203,0.0266978
753.212,0.0218071
759.222,0.014008
765.231,0.0277104
771.24,0.0310853
777.249,0.0469701
783.258,0.0803415
789.267,0.132061
795.276,0.151449
801.285,0.101187
807.294,0.0751572
813.303,0.0493002
819.312,0.0304598
825.321,0.0270258
831.331,0.01456
837.34,0.0165161
843.349,0.022463
849.358,0.030873
855.367,0.050036
861.376,0.06475
867.385,0.0666984
873.394,0.060588
879.403,0.0504988
885.412,0.0330493
891.421,0.0263968
897.431,0.0126162
903.44,0.0131342
909.449,0.0083108
915.458,0.0158488
921.467,0.0160945
927.476,0.0262023
933.485,0.0196625
939.494,0.0317159
945.503,0.0165872
951.512,0.0142392
957.521,0.0133849
963.531,0.00765176
969.54,0.00741688
975.549,0.00587616
981.558,0.0100938
987.567,0.00996402
993.576,0.0207661
999.585,0.0111226
1005.59,0.021214
1011.6,0.0243119
1017.61,0.0208376
1023.62,0.0345105
1029.63,0.0347677
1035.64,0.0311864
1041.65,0.0304111
1047.66,0.0299396
1053.67,0.0304269
1059.68,0.0284639
1065.69,0.024654
1071.69,0.0143496
1077.7,0.0177349
1083.71,0.0154381
1089.72,0.0259537
1095.73,0.0165175
1101.74,0.0195916
1107.75,0.0218711
1113.76,0.0166972
1119.77,0.0163638
1125.78,0.0206117
1131.79,0.0230568
1137.79,0.0143753
1143.8,0.017245
1149.81,0.0105718
1155.82,0.0181345
1161.83,0.0209749
1167.84,0.0224379
1173.85,0.0196907
1179.86,0.0151503
1185.87,0.00649098
1191.88,0.0160802
1197.89,0.0168664
1203.89,0.0105764
1209.9,0.0171297
1215.91,0.0170716
1221.92,0.0159817
1227.93,0.0239916
1233.94,0.0147446
1239.95,0.0143725
1245.96,0.0319528
1251.97,0.0380498
1257.98,0.0606671
1263.98,0.0798855
1269.99,0.0749372
1276,0.0637319
1282.01,0.0622749
1288.02,0.069396
1294.03,0.0658569
1300.04,0.0712422
1306.05,0.0741626
1312.06,0.0722141
1318.07,0.0832097
1324.08,0.0743996
1330.08,0.0779414
1336.09,0.078941
1342.1,0.0712151
1348.11,0.0552382
1354.12,0.0626098
1360.13,0.0502558
1366.14,0.0511629
1372.15,0.0609343
1378.16,0.042717
1384.17,0.0636504
1390.18,0.0644421
1396.18,0.0799534
1402.19,0.126253
1408.2,0.146624
1414.21,0.164605
1420.22,0.12997
1426.23,0.0825812
1432.24,0.0509239
1438.25,0.0396492
1444.26,0.0276702
1450.27,0.0211248
1456.28,0.0236232
1462.28,0.017274
1468.29,0.0171955
1474.3,0.0135308
1480.31,0.0267387
1486.32,0.0331635
1492.33,0.0215932
1498.34,0.0170875
1504.35,0.0210042
1510.36,0.0234789
1516.37,0.0196618
1522.38,0.0250943
1528.38,0.0175432
1534.39,0.0116448
1540.4,0.0186767
1546.41,0.0167264
1552.42,0.0182418
1558.43,0.0127024
1564.44,0.0189822
1570.45,0.0142093
1576.46,0.021255
1582.47,0.0161939
1588.48,0.0187667
1594.48,0.0130999
1600.49,0.0125286
1606.5,0.00966804
1612.51,0.00363556
1618.52,0.0157997
1624.53,0.0130102
1630.54,0.0129899
1636.55,0.0126436
1642.56,0.0197184
1648.57,0.0190748
1654.58,0.0214485
1660.58,0.0261031
1666.59,0.0250554
1672.6,0.0200421
1678.61,0.0120668
1684.62,0.0184802
1690.63,0.0201058
1696.64,0.0148413
1702.65,0.0215077
1708.66,0.016911
1714.67,0.0186827
1720.68,0.0168754
1726.68,0.0161268
1732.69,0.0108295
1738.7,0.0175801
1744.71,0.015332
1750.72,0.0200851
1756.73,0.0139069
1762.74,0.0232154
1768.75,0.0164472
1774.76,0.0145617
1780.77,0.0222073
1786.78,0.0238405
1792.78,0.0257808
1798.79,0.0170448
1804.8,0.0136614
1810.81,0.0198743
1816.82,0.0175975
1822.83,0.0272381
1828.84,0.0156713
1834.85,0.013465
1840.86,0.0127336
1845.66,0.0160966